%time,field.header.seq,field.header.stamp,field.header.frame_id,field.orientation.x,field.orientation.y,field.orientation.z,field.orientation.w,field.orientation_covariance0,field.orientation_covariance1,field.orientation_covariance2,field.orientation_covariance3,field.orientation_covariance4,field.orientation_covariance5,field.orientation_covariance6,field.orientation_covariance7,field.orientation_covariance8,field.angular_velocity.x,field.angular_velocity.y,field.angular_velocity.z,field.angular_velocity_covariance0,field.angular_velocity_covariance1,field.angular_velocity_covariance2,field.angular_velocity_covariance3,field.angular_velocity_covariance4,field.angular_velocity_covariance5,field.angular_velocity_covariance6,field.angular_velocity_covariance7,field.angular_velocity_covariance8,field.linear_acceleration.x,field.linear_acceleration.y,field.linear_acceleration.z,field.linear_acceleration_covariance0,field.linear_acceleration_covariance1,field.linear_acceleration_covariance2,field.linear_acceleration_covariance3,field.linear_acceleration_covariance4,field.linear_acceleration_covariance5,field.linear_acceleration_covariance6,field.linear_acceleration_covariance7,field.linear_acceleration_covariance8
1626894335991470721,82516,1626894335991470721,imu,0.229186020477,0.663510313877,-0.264525223102,0.661252022863,0.0,0.0,0.0,0.0,0.0,0.0,0.0,0.0,0.0,2.10222222222,0.252222222222,-0.154444444444,0.0,0.0,0.0,0.0,0.0,0.0,0.0,0.0,0.0,-29.42,-0.47,1.61,0.0,0.0,0.0,0.0,0.0,0.0,0.0,0.0,0.0
1626894336003315201,82517,1626894336003315201,imu,0.235599069471,0.661813655512,-0.271244110034,0.657968385725,0.0,0.0,0.0,0.0,0.0,0.0,0.0,0.0,0.0,2.08,0.254444444444,-0.143333333333,0.0,0.0,0.0,0.0,0.0,0.0,0.0,0.0,0.0,-29.42,-0.01,1.33,0.0,0.0,0.0,0.0,0.0,0.0,0.0,0.0,0.0
1626894336014514055,82518,1626894336014514055,imu,0.24194448647,0.660098289903,-0.277894360973,0.65460510025,0.0,0.0,0.0,0.0,0.0,0.0,0.0,0.0,0.0,2.07222222222,0.256666666667,-0.142222222222,0.0,0.0,0.0,0.0,0.0,0.0,0.0,0.0,0.0,-29.42,-0.28,1.58,0.0,0.0,0.0,0.0,0.0,0.0,0.0,0.0,0.0
1626894336025488899,82519,1626894336025488899,imu,0.248299398464,0.658286384572,-0.284494468103,0.651206067408,0.0,0.0,0.0,0.0,0.0,0.0,0.0,0.0,0.0,2.06666666667,0.263333333333,-0.135555555556,0.0,0.0,0.0,0.0,0.0,0.0,0.0,0.0,0.0,-29.42,-0.36,1.63,0.0,0.0,0.0,0.0,0.0,0.0,0.0,0.0,0.0
1626894336031995461,82520,1626894336031995461,imu,0.254576971436,0.656431390025,-0.291014864494,0.647764420486,0.0,0.0,0.0,0.0,0.0,0.0,0.0,0.0,0.0,2.06333333333,0.264444444444,-0.127777777778,0.0,0.0,0.0,0.0,0.0,0.0,0.0,0.0,0.0,-29.42,-0.14,1.54,0.0,0.0,0.0,0.0,0.0,0.0,0.0,0.0,0.0
1626894336041764315,82521,1626894336041764315,imu,0.260921285412,0.654530962518,-0.29748078248,0.644216179539,0.0,0.0,0.0,0.0,0.0,0.0,0.0,0.0,0.0,2.05333333333,0.266666666667,-0.117777777778,0.0,0.0,0.0,0.0,0.0,0.0,0.0,0.0,0.0,-29.42,-0.29,1.54,0.0,0.0,0.0,0.0,0.0,0.0,0.0,0.0,0.0
1626894336052086138,82522,1626894336052086138,imu,0.267203062535,0.652566273326,-0.303822943193,0.640664812112,0.0,0.0,0.0,0.0,0.0,0.0,0.0,0.0,0.0,2.04888888889,0.267777777778,-0.106666666667,0.0,0.0,0.0,0.0,0.0,0.0,0.0,0.0,0.0,-29.42,-0.17,1.35,0.0,0.0,0.0,0.0,0.0,0.0,0.0,0.0,0.0
1626894336063144836,82523,1626894336063144836,imu,0.273495848458,0.650506305036,-0.310116582463,0.637078702568,0.0,0.0,0.0,0.0,0.0,0.0,0.0,0.0,0.0,2.03777777778,0.26,-0.0966666666667,0.0,0.0,0.0,0.0,0.0,0.0,0.0,0.0,0.0,-29.42,-0.22,1.39,0.0,0.0,0.0,0.0,0.0,0.0,0.0,0.0,0.0
1626894336073931763,82524,1626894336073931763,imu,0.279716782199,0.648359453918,-0.316275881597,0.633528300072,0.0,0.0,0.0,0.0,0.0,0.0,0.0,0.0,0.0,2.03111111111,0.255555555556,-0.0866666666667,0.0,0.0,0.0,0.0,0.0,0.0,0.0,0.0,0.0,-29.42,-0.07,1.43,0.0,0.0,0.0,0.0,0.0,0.0,0.0,0.0,0.0
1626894336082025669,82525,1626894336082025669,imu,0.285960845358,0.646143331689,-0.322400252974,0.629907347726,0.0,0.0,0.0,0.0,0.0,0.0,0.0,0.0,0.0,2.02444444444,0.251111111111,-0.0722222222222,0.0,0.0,0.0,0.0,0.0,0.0,0.0,0.0,0.0,-29.42,-0.17,1.5,0.0,0.0,0.0,0.0,0.0,0.0,0.0,0.0,0.0
1626894336091368534,82526,1626894336091368534,imu,0.292172791771,0.64385435145,-0.32842736422,0.626276376929,0.0,0.0,0.0,0.0,0.0,0.0,0.0,0.0,0.0,2.02333333333,0.244444444444,-0.0633333333333,0.0,0.0,0.0,0.0,0.0,0.0,0.0,0.0,0.0,-29.42,-0.09,1.52,0.0,0.0,0.0,0.0,0.0,0.0,0.0,0.0,0.0
1626894336105850096,82527,1626894336105850096,imu,0.298397095546,0.641471359007,-0.334407381161,0.622611734846,0.0,0.0,0.0,0.0,0.0,0.0,0.0,0.0,0.0,2.01555555556,0.241111111111,-0.0511111111111,0.0,0.0,0.0,0.0,0.0,0.0,0.0,0.0,0.0,-29.42,0.08,1.34,0.0,0.0,0.0,0.0,0.0,0.0,0.0,0.0,0.0
1626894336113643326,82528,1626894336113643326,imu,0.304573876529,0.63899477222,-0.340280433196,0.618974685747,0.0,0.0,0.0,0.0,0.0,0.0,0.0,0.0,0.0,2.00222222222,0.236666666667,-0.0377777777778,0.0,0.0,0.0,0.0,0.0,0.0,0.0,0.0,0.0,-29.42,-0.23,1.62,0.0,0.0,0.0,0.0,0.0,0.0,0.0,0.0,0.0
1626894336122960253,82529,1626894336122960253,imu,0.310729129666,0.636472866658,-0.346068388373,0.61529372543,0.0,0.0,0.0,0.0,0.0,0.0,0.0,0.0,0.0,1.99666666667,0.232222222222,-0.0255555555556,0.0,0.0,0.0,0.0,0.0,0.0,0.0,0.0,0.0,-29.42,0.02,1.4,0.0,0.0,0.0,0.0,0.0,0.0,0.0,0.0,0.0
1626894336131699367,82530,1626894336131699367,imu,0.316838300011,0.633859708267,-0.351750938733,0.611642574534,0.0,0.0,0.0,0.0,0.0,0.0,0.0,0.0,0.0,1.98666666667,0.23,-0.0144444444444,0.0,0.0,0.0,0.0,0.0,0.0,0.0,0.0,0.0,-29.42,-0.11,1.85,0.0,0.0,0.0,0.0,0.0,0.0,0.0,0.0,0.0
1626894336141440930,82531,1626894336141440930,imu,0.32293772512,0.631226980381,-0.357361629291,0.607911499187,0.0,0.0,0.0,0.0,0.0,0.0,0.0,0.0,0.0,1.97222222222,0.232222222222,0.00222222222222,0.0,0.0,0.0,0.0,0.0,0.0,0.0,0.0,0.0,-29.42,-0.14,1.83,0.0,0.0,0.0,0.0,0.0,0.0,0.0,0.0,0.0
1626894336151949107,82532,1626894336151949107,imu,0.328980792498,0.628481488005,-0.362855438107,0.6042504352,0.0,0.0,0.0,0.0,0.0,0.0,0.0,0.0,0.0,1.95666666667,0.221111111111,0.01,0.0,0.0,0.0,0.0,0.0,0.0,0.0,0.0,0.0,-29.42,-0.01,1.29,0.0,0.0,0.0,0.0,0.0,0.0,0.0,0.0,0.0
1626894336163131086,82533,1626894336163131086,imu,0.335021860955,0.625732213247,-0.368224974885,0.600524702121,0.0,0.0,0.0,0.0,0.0,0.0,0.0,0.0,0.0,1.94555555556,0.223333333333,0.0277777777778,0.0,0.0,0.0,0.0,0.0,0.0,0.0,0.0,0.0,-29.42,-0.06,1.83,0.0,0.0,0.0,0.0,0.0,0.0,0.0,0.0,0.0
1626894336172986867,82534,1626894336172986867,imu,0.341000636601,0.622858689191,-0.373532109539,0.596857924703,0.0,0.0,0.0,0.0,0.0,0.0,0.0,0.0,0.0,1.94,0.217777777778,0.04,0.0,0.0,0.0,0.0,0.0,0.0,0.0,0.0,0.0,-29.42,-0.05,1.48,0.0,0.0,0.0,0.0,0.0,0.0,0.0,0.0,0.0
1626894336182468378,82535,1626894336182468378,imu,0.347050141638,0.619880625832,-0.37878881094,0.593146900535,0.0,0.0,0.0,0.0,0.0,0.0,0.0,0.0,0.0,1.94777777778,0.208888888889,0.0522222222222,0.0,0.0,0.0,0.0,0.0,0.0,0.0,0.0,0.0,-29.42,0.0,1.43,0.0,0.0,0.0,0.0,0.0,0.0,0.0,0.0,0.0
1626894336191387701,82536,1626894336191387701,imu,0.3531619358,0.616782122582,-0.384046819919,0.589376365725,0.0,0.0,0.0,0.0,0.0,0.0,0.0,0.0,0.0,1.97555555556,0.201111111111,0.0655555555556,0.0,0.0,0.0,0.0,0.0,0.0,0.0,0.0,0.0,-29.42,-0.05,1.77,0.0,0.0,0.0,0.0,0.0,0.0,0.0,0.0,0.0
1626894336202767649,82537,1626894336202767649,imu,0.359318549461,0.613472182883,-0.389409265426,0.585578760579,0.0,0.0,0.0,0.0,0.0,0.0,0.0,0.0,0.0,2.00444444444,0.19,0.0755555555556,0.0,0.0,0.0,0.0,0.0,0.0,0.0,0.0,0.0,-29.42,0.05,1.49,0.0,0.0,0.0,0.0,0.0,0.0,0.0,0.0,0.0
1626894336212894576,82538,1626894336212894576,imu,0.365600182115,0.610045712894,-0.394774954577,0.581664396586,0.0,0.0,0.0,0.0,0.0,0.0,0.0,0.0,0.0,2.04111111111,0.18,0.0833333333333,0.0,0.0,0.0,0.0,0.0,0.0,0.0,0.0,0.0,-29.42,-0.13,1.78,0.0,0.0,0.0,0.0,0.0,0.0,0.0,0.0,0.0
1626894336226742544,82539,1626894336226742544,imu,0.37188749727,0.6064457858,-0.400146796669,0.577759239974,0.0,0.0,0.0,0.0,0.0,0.0,0.0,0.0,0.0,2.07222222222,0.174444444444,0.1,0.0,0.0,0.0,0.0,0.0,0.0,0.0,0.0,0.0,-29.42,-0.1,1.64,0.0,0.0,0.0,0.0,0.0,0.0,0.0,0.0,0.0
1626894336234326451,82540,1626894336234326451,imu,0.378292417608,0.602655587522,-0.405635916009,0.573725189661,0.0,0.0,0.0,0.0,0.0,0.0,0.0,0.0,0.0,2.09666666667,0.158888888889,0.11,0.0,0.0,0.0,0.0,0.0,0.0,0.0,0.0,0.0,-29.42,0.0,1.5,0.0,0.0,0.0,0.0,0.0,0.0,0.0,0.0,0.0
1626894336241393169,82541,1626894336241393169,imu,0.384709881809,0.59870208324,-0.411077432014,0.569709985214,0.0,0.0,0.0,0.0,0.0,0.0,0.0,0.0,0.0,2.12888888889,0.151111111111,0.117777777778,0.0,0.0,0.0,0.0,0.0,0.0,0.0,0.0,0.0,-29.42,-0.18,1.49,0.0,0.0,0.0,0.0,0.0,0.0,0.0,0.0,0.0
1626894336252071867,82542,1626894336252071867,imu,0.391174738277,0.594605133453,-0.416626425882,0.565552367745,0.0,0.0,0.0,0.0,0.0,0.0,0.0,0.0,0.0,2.16333333333,0.14,0.127777777778,0.0,0.0,0.0,0.0,0.0,0.0,0.0,0.0,0.0,-29.42,-0.13,1.6,0.0,0.0,0.0,0.0,0.0,0.0,0.0,0.0,0.0
1626894336264754471,82543,1626894336264754471,imu,0.397705017381,0.590331941085,-0.422180111299,0.561340246294,0.0,0.0,0.0,0.0,0.0,0.0,0.0,0.0,0.0,2.19444444444,0.131111111111,0.137777777778,0.0,0.0,0.0,0.0,0.0,0.0,0.0,0.0,0.0,-29.42,-0.41,1.69,0.0,0.0,0.0,0.0,0.0,0.0,0.0,0.0,0.0
1626894336273392023,82544,1626894336273392023,imu,0.404237583682,0.585878992264,-0.427797255629,0.557070274237,0.0,0.0,0.0,0.0,0.0,0.0,0.0,0.0,0.0,2.22222222222,0.117777777778,0.148888888889,0.0,0.0,0.0,0.0,0.0,0.0,0.0,0.0,0.0,-29.42,-0.44,1.6,0.0,0.0,0.0,0.0,0.0,0.0,0.0,0.0,0.0
1626894336282368221,82545,1626894336282368221,imu,0.410821987171,0.581351868638,-0.43322158148,0.552787808321,0.0,0.0,0.0,0.0,0.0,0.0,0.0,0.0,0.0,2.21222222222,0.126666666667,0.164444444444,0.0,0.0,0.0,0.0,0.0,0.0,0.0,0.0,0.0,-29.42,-0.32,1.71,0.0,0.0,0.0,0.0,0.0,0.0,0.0,0.0,0.0
1626894336291382388,82546,1626894336291382388,imu,0.417298603043,0.576783940143,-0.438599935859,0.548463543506,0.0,0.0,0.0,0.0,0.0,0.0,0.0,0.0,0.0,2.20333333333,0.122222222222,0.174444444444,0.0,0.0,0.0,0.0,0.0,0.0,0.0,0.0,0.0,-29.42,-0.05,1.36,0.0,0.0,0.0,0.0,0.0,0.0,0.0,0.0,0.0
1626894336305382076,82547,1626894336305382076,imu,0.423772304239,0.572089558927,-0.443975189548,0.544074077486,0.0,0.0,0.0,0.0,0.0,0.0,0.0,0.0,0.0,2.21777777778,0.115555555556,0.168888888889,0.0,0.0,0.0,0.0,0.0,0.0,0.0,0.0,0.0,-29.42,-0.25,1.49,0.0,0.0,0.0,0.0,0.0,0.0,0.0,0.0,0.0
1626894336313073169,82548,1626894336313073169,imu,0.430177225136,0.567323681561,-0.449342328527,0.539613627615,0.0,0.0,0.0,0.0,0.0,0.0,0.0,0.0,0.0,2.21555555556,0.107777777778,0.163333333333,0.0,0.0,0.0,0.0,0.0,0.0,0.0,0.0,0.0,-29.42,-0.08,1.66,0.0,0.0,0.0,0.0,0.0,0.0,0.0,0.0,0.0
1626894336322945253,82549,1626894336322945253,imu,0.436394703507,0.562552445066,-0.454582902338,0.535209112594,0.0,0.0,0.0,0.0,0.0,0.0,0.0,0.0,0.0,2.19555555556,0.101111111111,0.162222222222,0.0,0.0,0.0,0.0,0.0,0.0,0.0,0.0,0.0,-29.42,0.08,1.45,0.0,0.0,0.0,0.0,0.0,0.0,0.0,0.0,0.0
1626894336332389315,82550,1626894336332389315,imu,0.442509606548,0.557745211674,-0.459843775963,0.530706348818,0.0,0.0,0.0,0.0,0.0,0.0,0.0,0.0,0.0,2.17555555556,0.0922222222222,0.146666666667,0.0,0.0,0.0,0.0,0.0,0.0,0.0,0.0,0.0,-29.42,-0.1,1.42,0.0,0.0,0.0,0.0,0.0,0.0,0.0,0.0,0.0
1626894336341776451,82551,1626894336341776451,imu,0.448476993982,0.552905972848,-0.465017177075,0.526234164686,0.0,0.0,0.0,0.0,0.0,0.0,0.0,0.0,0.0,2.15555555556,0.0755555555556,0.14,0.0,0.0,0.0,0.0,0.0,0.0,0.0,0.0,0.0,-29.41,0.03,1.3,0.0,0.0,0.0,0.0,0.0,0.0,0.0,0.0,0.0
1626894336352219471,82552,1626894336352219471,imu,0.454278876884,0.548027681787,-0.470147815214,0.521782899165,0.0,0.0,0.0,0.0,0.0,0.0,0.0,0.0,0.0,2.14444444444,0.0655555555556,0.134444444444,0.0,0.0,0.0,0.0,0.0,0.0,0.0,0.0,0.0,-29.41,-0.42,1.49,0.0,0.0,0.0,0.0,0.0,0.0,0.0,0.0,0.0
1626894336363040201,82553,1626894336363040201,imu,0.460015574633,0.543022232654,-0.475274151475,0.517326789252,0.0,0.0,0.0,0.0,0.0,0.0,0.0,0.0,0.0,2.14111111111,0.0455555555556,0.128888888889,0.0,0.0,0.0,0.0,0.0,0.0,0.0,0.0,0.0,-29.41,-0.13,1.51,0.0,0.0,0.0,0.0,0.0,0.0,0.0,0.0,0.0
1626894336373466398,82554,1626894336373466398,imu,0.465748937428,0.537890890519,-0.480397049731,0.512805998201,0.0,0.0,0.0,0.0,0.0,0.0,0.0,0.0,0.0,2.15444444444,0.0355555555556,0.135555555556,0.0,0.0,0.0,0.0,0.0,0.0,0.0,0.0,0.0,-29.41,-0.2,1.37,0.0,0.0,0.0,0.0,0.0,0.0,0.0,0.0,0.0
1626894336382274888,82555,1626894336382274888,imu,0.471365943517,0.532766194608,-0.48546480833,0.50823050779,0.0,0.0,0.0,0.0,0.0,0.0,0.0,0.0,0.0,2.15444444444,0.0244444444444,0.133333333333,0.0,0.0,0.0,0.0,0.0,0.0,0.0,0.0,0.0,-29.41,-0.35,1.38,0.0,0.0,0.0,0.0,0.0,0.0,0.0,0.0,0.0
1626894336391264263,82556,1626894336391264263,imu,0.476854938998,0.527512765616,-0.490526448832,0.503709690458,0.0,0.0,0.0,0.0,0.0,0.0,0.0,0.0,0.0,2.13666666667,0.0122222222222,0.134444444444,0.0,0.0,0.0,0.0,0.0,0.0,0.0,0.0,0.0,-29.41,-0.31,1.52,0.0,0.0,0.0,0.0,0.0,0.0,0.0,0.0,0.0
1626894336405472232,82557,1626894336405472232,imu,0.482182442421,0.522282931619,-0.495488236401,0.499211417286,0.0,0.0,0.0,0.0,0.0,0.0,0.0,0.0,0.0,2.10777777778,0.00666666666667,0.13,0.0,0.0,0.0,0.0,0.0,0.0,0.0,0.0,0.0,-29.41,-0.35,1.51,0.0,0.0,0.0,0.0,0.0,0.0,0.0,0.0,0.0
1626894336413201659,82558,1626894336413201659,imu,0.487491072758,0.517032287134,-0.500308541806,0.494693269652,0.0,0.0,0.0,0.0,0.0,0.0,0.0,0.0,0.0,2.09,-0.00444444444444,0.128888888889,0.0,0.0,0.0,0.0,0.0,0.0,0.0,0.0,0.0,-29.41,-0.05,1.04,0.0,0.0,0.0,0.0,0.0,0.0,0.0,0.0,0.0
1626894336422999732,82559,1626894336422999732,imu,0.492551078787,0.511777050263,-0.505124253784,0.490231755243,0.0,0.0,0.0,0.0,0.0,0.0,0.0,0.0,0.0,2.07222222222,-0.0155555555556,0.125555555556,0.0,0.0,0.0,0.0,0.0,0.0,0.0,0.0,0.0,-29.41,-0.48,1.41,0.0,0.0,0.0,0.0,0.0,0.0,0.0,0.0,0.0
1626894336431571138,82560,1626894336431571138,imu,0.497562734633,0.506473941607,-0.509891938803,0.485721815776,0.0,0.0,0.0,0.0,0.0,0.0,0.0,0.0,0.0,2.05444444444,-0.0288888888889,0.111111111111,0.0,0.0,0.0,0.0,0.0,0.0,0.0,0.0,0.0,-29.4,-0.09,1.04,0.0,0.0,0.0,0.0,0.0,0.0,0.0,0.0,0.0
1626894336441250461,82561,1626894336441250461,imu,0.5023892554,0.501168530688,-0.51465753876,0.48120968164,0.0,0.0,0.0,0.0,0.0,0.0,0.0,0.0,0.0,2.04222222222,-0.0388888888889,0.107777777778,0.0,0.0,0.0,0.0,0.0,0.0,0.0,0.0,0.0,-29.41,-0.37,1.4,0.0,0.0,0.0,0.0,0.0,0.0,0.0,0.0,0.0
1626894336452139523,82562,1626894336452139523,imu,0.507094653491,0.495863861936,-0.519302035616,0.476759308909,0.0,0.0,0.0,0.0,0.0,0.0,0.0,0.0,0.0,2.01222222222,-0.0455555555556,0.0966666666667,0.0,0.0,0.0,0.0,0.0,0.0,0.0,0.0,0.0,-29.41,-0.44,1.43,0.0,0.0,0.0,0.0,0.0,0.0,0.0,0.0,0.0
1626894336462903013,82563,1626894336462903013,imu,0.511619127268,0.490622112262,-0.523887731966,0.472310761966,0.0,0.0,0.0,0.0,0.0,0.0,0.0,0.0,0.0,1.98,-0.0577777777778,0.0844444444444,0.0,0.0,0.0,0.0,0.0,0.0,0.0,0.0,0.0,-29.32,-0.35,1.56,0.0,0.0,0.0,0.0,0.0,0.0,0.0,0.0,0.0
1626894336472938117,82564,1626894336472938117,imu,0.515996335645,0.485478454426,-0.528325559657,0.467900154844,0.0,0.0,0.0,0.0,0.0,0.0,0.0,0.0,0.0,1.93222222222,-0.0522222222222,0.0811111111111,0.0,0.0,0.0,0.0,0.0,0.0,0.0,0.0,0.0,-29.37,-0.29,0.99,0.0,0.0,0.0,0.0,0.0,0.0,0.0,0.0,0.0
1626894336481432648,82565,1626894336481432648,imu,0.52019947021,0.480404790569,-0.532650566293,0.463559189985,0.0,0.0,0.0,0.0,0.0,0.0,0.0,0.0,0.0,1.89444444444,-0.0666666666667,0.0711111111111,0.0,0.0,0.0,0.0,0.0,0.0,0.0,0.0,0.0,-29.4,-0.31,1.46,0.0,0.0,0.0,0.0,0.0,0.0,0.0,0.0,0.0
1626894336491703638,82566,1626894336491703638,imu,0.5242297433,0.475340696335,-0.536925026407,0.459288487407,0.0,0.0,0.0,0.0,0.0,0.0,0.0,0.0,0.0,1.86777777778,-0.07,0.0622222222222,0.0,0.0,0.0,0.0,0.0,0.0,0.0,0.0,0.0,-29.39,-0.36,1.47,0.0,0.0,0.0,0.0,0.0,0.0,0.0,0.0,0.0
1626894336502889003,82567,1626894336502889003,imu,0.52814757489,0.470346147244,-0.541148318384,0.454964985928,0.0,0.0,0.0,0.0,0.0,0.0,0.0,0.0,0.0,1.83555555556,-0.0766666666667,0.0544444444444,0.0,0.0,0.0,0.0,0.0,0.0,0.0,0.0,0.0,-29.37,-0.28,0.9,0.0,0.0,0.0,0.0,0.0,0.0,0.0,0.0,0.0
1626894336513015825,82568,1626894336513015825,imu,0.531907917566,0.465320248252,-0.545335311927,0.450733215286,0.0,0.0,0.0,0.0,0.0,0.0,0.0,0.0,0.0,1.81222222222,-0.0922222222222,0.0411111111111,0.0,0.0,0.0,0.0,0.0,0.0,0.0,0.0,0.0,-29.27,-0.45,1.21,0.0,0.0,0.0,0.0,0.0,0.0,0.0,0.0,0.0
1626894336523002284,82569,1626894336523002284,imu,0.535532737358,0.460397018223,-0.549449020025,0.446480735557,0.0,0.0,0.0,0.0,0.0,0.0,0.0,0.0,0.0,1.79,-0.0977777777778,0.0344444444444,0.0,0.0,0.0,0.0,0.0,0.0,0.0,0.0,0.0,-29.18,-0.17,0.77,0.0,0.0,0.0,0.0,0.0,0.0,0.0,0.0,0.0
1626894336531444888,82570,1626894336531444888,imu,0.539061004928,0.455443072778,-0.55352629684,0.442259515592,0.0,0.0,0.0,0.0,0.0,0.0,0.0,0.0,0.0,1.77111111111,-0.107777777778,0.0233333333333,0.0,0.0,0.0,0.0,0.0,0.0,0.0,0.0,0.0,-29.18,-0.23,0.82,0.0,0.0,0.0,0.0,0.0,0.0,0.0,0.0,0.0
1626894336541127596,82571,1626894336541127596,imu,0.542410193307,0.450553847979,-0.557546654198,0.438102888214,0.0,0.0,0.0,0.0,0.0,0.0,0.0,0.0,0.0,1.74111111111,-0.113333333333,0.0133333333333,0.0,0.0,0.0,0.0,0.0,0.0,0.0,0.0,0.0,-29.38,-0.11,1.02,0.0,0.0,0.0,0.0,0.0,0.0,0.0,0.0,0.0
1626894336552859263,82572,1626894336552859263,imu,0.545532684839,0.445923226162,-0.561401838795,0.434021360695,0.0,0.0,0.0,0.0,0.0,0.0,0.0,0.0,0.0,1.66222222222,-0.113333333333,-0.00111111111111,0.0,0.0,0.0,0.0,0.0,0.0,0.0,0.0,0.0,-29.4,-0.89,1.31,0.0,0.0,0.0,0.0,0.0,0.0,0.0,0.0,0.0
1626894336562993482,82573,1626894336562993482,imu,0.548523705281,0.441467893657,-0.565003220183,0.430115338947,0.0,0.0,0.0,0.0,0.0,0.0,0.0,0.0,0.0,1.58444444444,-0.107777777778,-0.00333333333333,0.0,0.0,0.0,0.0,0.0,0.0,0.0,0.0,0.0,-29.16,0.01,0.88,0.0,0.0,0.0,0.0,0.0,0.0,0.0,0.0,0.0
1626894336573674315,82574,1626894336573674315,imu,0.551326081844,0.437191268045,-0.568415786584,0.426388133262,0.0,0.0,0.0,0.0,0.0,0.0,0.0,0.0,0.0,1.50777777778,-0.102222222222,-0.00888888888889,0.0,0.0,0.0,0.0,0.0,0.0,0.0,0.0,0.0,-28.85,-0.01,0.91,0.0,0.0,0.0,0.0,0.0,0.0,0.0,0.0,0.0
1626894336581338065,82575,1626894336581338065,imu,0.55394371399,0.433157617694,-0.571643546191,0.42278185399,0.0,0.0,0.0,0.0,0.0,0.0,0.0,0.0,0.0,1.43777777778,-0.0844444444444,-0.0111111111111,0.0,0.0,0.0,0.0,0.0,0.0,0.0,0.0,0.0,-28.87,-0.68,1.31,0.0,0.0,0.0,0.0,0.0,0.0,0.0,0.0,0.0
1626894336593307336,82576,1626894336593307336,imu,0.556437469853,0.42930582022,-0.574686324025,0.419296415256,0.0,0.0,0.0,0.0,0.0,0.0,0.0,0.0,0.0,1.36666666667,-0.0822222222222,-0.0166666666667,0.0,0.0,0.0,0.0,0.0,0.0,0.0,0.0,0.0,-28.97,-0.14,0.77,0.0,0.0,0.0,0.0,0.0,0.0,0.0,0.0,0.0
1626894336602825253,82577,1626894336602825253,imu,0.558712530723,0.425656673504,-0.577572282961,0.416013175596,0.0,0.0,0.0,0.0,0.0,0.0,0.0,0.0,0.0,1.28777777778,-0.0777777777778,-0.0233333333333,0.0,0.0,0.0,0.0,0.0,0.0,0.0,0.0,0.0,-29.17,-0.59,1.34,0.0,0.0,0.0,0.0,0.0,0.0,0.0,0.0,0.0
1626894336613334680,82578,1626894336613334680,imu,0.56089834151,0.422230111705,-0.580245977447,0.41283094472,0.0,0.0,0.0,0.0,0.0,0.0,0.0,0.0,0.0,1.21444444444,-0.07,-0.0188888888889,0.0,0.0,0.0,0.0,0.0,0.0,0.0,0.0,0.0,-29.2,-0.44,1.32,0.0,0.0,0.0,0.0,0.0,0.0,0.0,0.0,0.0
1626894336622934992,82579,1626894336622934992,imu,0.562914635803,0.418996961378,-0.582750617223,0.40984189303,0.0,0.0,0.0,0.0,0.0,0.0,0.0,0.0,0.0,1.14777777778,-0.0633333333333,-0.0222222222222,0.0,0.0,0.0,0.0,0.0,0.0,0.0,0.0,0.0,-28.89,-0.33,0.66,0.0,0.0,0.0,0.0,0.0,0.0,0.0,0.0,0.0
1626894336632389055,82580,1626894336632389055,imu,0.564778922123,0.415969777831,-0.585104371282,0.406997282256,0.0,0.0,0.0,0.0,0.0,0.0,0.0,0.0,0.0,1.07555555556,-0.06,-0.0266666666667,0.0,0.0,0.0,0.0,0.0,0.0,0.0,0.0,0.0,-28.88,-0.52,1.17,0.0,0.0,0.0,0.0,0.0,0.0,0.0,0.0,0.0
1626894336641193482,82581,1626894336641193482,imu,0.566473220342,0.413151301422,-0.587286426692,0.404362146834,0.0,0.0,0.0,0.0,0.0,0.0,0.0,0.0,0.0,1.0,-0.0566666666667,-0.0266666666667,0.0,0.0,0.0,0.0,0.0,0.0,0.0,0.0,0.0,-28.84,-0.27,0.61,0.0,0.0,0.0,0.0,0.0,0.0,0.0,0.0,0.0
1626894336653219367,82582,1626894336653219367,imu,0.568062716982,0.41052861657,-0.589303269846,0.401861494424,0.0,0.0,0.0,0.0,0.0,0.0,0.0,0.0,0.0,0.928888888889,-0.0566666666667,-0.0322222222222,0.0,0.0,0.0,0.0,0.0,0.0,0.0,0.0,0.0,-28.95,-0.21,0.67,0.0,0.0,0.0,0.0,0.0,0.0,0.0,0.0,0.0
1626894336663085200,82583,1626894336663085200,imu,0.569459996632,0.408143515271,-0.591188588143,0.399537528184,0.0,0.0,0.0,0.0,0.0,0.0,0.0,0.0,0.0,0.856666666667,-0.0533333333333,-0.0377777777778,0.0,0.0,0.0,0.0,0.0,0.0,0.0,0.0,0.0,-28.99,-0.42,1.08,0.0,0.0,0.0,0.0,0.0,0.0,0.0,0.0,0.0
1626894336673282857,82584,1626894336673282857,imu,0.570743506265,0.405947498681,-0.592899413951,0.39740252051,0.0,0.0,0.0,0.0,0.0,0.0,0.0,0.0,0.0,0.782222222222,-0.0455555555556,-0.0388888888889,0.0,0.0,0.0,0.0,0.0,0.0,0.0,0.0,0.0,-28.86,-0.21,0.6,0.0,0.0,0.0,0.0,0.0,0.0,0.0,0.0,0.0
1626894336681307700,82585,1626894336681307700,imu,0.571839543099,0.403992521696,-0.594483632168,0.395447582425,0.0,0.0,0.0,0.0,0.0,0.0,0.0,0.0,0.0,0.707777777778,-0.0444444444444,-0.0422222222222,0.0,0.0,0.0,0.0,0.0,0.0,0.0,0.0,0.0,-29.27,-0.37,0.82,0.0,0.0,0.0,0.0,0.0,0.0,0.0,0.0,0.0
1626894336692518794,82586,1626894336692518794,imu,0.572894938176,0.40217395564,-0.595905953698,0.393628750937,0.0,0.0,0.0,0.0,0.0,0.0,0.0,0.0,0.0,0.653333333333,-0.04,-0.0455555555556,0.0,0.0,0.0,0.0,0.0,0.0,0.0,0.0,0.0,-29.12,-0.35,1.07,0.0,0.0,0.0,0.0,0.0,0.0,0.0,0.0,0.0
1626894336705214419,82587,1626894336705214419,imu,0.573834337909,0.400499992061,-0.597271094531,0.391894307989,0.0,0.0,0.0,0.0,0.0,0.0,0.0,0.0,0.0,0.611111111111,-0.0366666666667,-0.0477777777778,0.0,0.0,0.0,0.0,0.0,0.0,0.0,0.0,0.0,-28.65,-0.36,0.74,0.0,0.0,0.0,0.0,0.0,0.0,0.0,0.0,0.0
1626894336713097909,82588,1626894336713097909,imu,0.574708271935,0.398987677744,-0.59851203426,0.390259631558,0.0,0.0,0.0,0.0,0.0,0.0,0.0,0.0,0.0,0.568888888889,-0.0311111111111,-0.0477777777778,0.0,0.0,0.0,0.0,0.0,0.0,0.0,0.0,0.0,-28.05,-0.18,0.97,0.0,0.0,0.0,0.0,0.0,0.0,0.0,0.0,0.0
1626894336726490148,82589,1626894336726490148,imu,0.575503096361,0.397584809598,-0.59967312777,0.388734671834,0.0,0.0,0.0,0.0,0.0,0.0,0.0,0.0,0.0,0.521111111111,-0.02,-0.05,0.0,0.0,0.0,0.0,0.0,0.0,0.0,0.0,0.0,-27.83,-0.24,1.17,0.0,0.0,0.0,0.0,0.0,0.0,0.0,0.0,0.0
1626894336733852544,82590,1626894336733852544,imu,0.576295076712,0.396302047563,-0.600709187143,0.387268826704,0.0,0.0,0.0,0.0,0.0,0.0,0.0,0.0,0.0,0.486666666667,-0.0155555555556,-0.0533333333333,0.0,0.0,0.0,0.0,0.0,0.0,0.0,0.0,0.0,-26.81,-0.29,0.48,0.0,0.0,0.0,0.0,0.0,0.0,0.0,0.0,0.0
1626894336743310461,82591,1626894336743310461,imu,0.576975911489,0.395209883306,-0.601634566756,0.385932369443,0.0,0.0,0.0,0.0,0.0,0.0,0.0,0.0,0.0,0.441111111111,-0.00666666666667,-0.0544444444444,0.0,0.0,0.0,0.0,0.0,0.0,0.0,0.0,0.0,-26.27,-0.1,0.86,0.0,0.0,0.0,0.0,0.0,0.0,0.0,0.0,0.0
1626894336752703846,82592,1626894336752703846,imu,0.577593501049,0.394238235578,-0.602496613004,0.384655420439,0.0,0.0,0.0,0.0,0.0,0.0,0.0,0.0,0.0,0.388888888889,-0.00888888888889,-0.0577777777778,0.0,0.0,0.0,0.0,0.0,0.0,0.0,0.0,0.0,-25.68,-0.42,0.75,0.0,0.0,0.0,0.0,0.0,0.0,0.0,0.0,0.0
1626894336763199836,82593,1626894336763199836,imu,0.57812126878,0.39336904321,-0.603267590859,0.383542446475,0.0,0.0,0.0,0.0,0.0,0.0,0.0,0.0,0.0,0.358888888889,-0.00444444444444,-0.0488888888889,0.0,0.0,0.0,0.0,0.0,0.0,0.0,0.0,0.0,-21.85,-0.28,0.66,0.0,0.0,0.0,0.0,0.0,0.0,0.0,0.0,0.0
1626894336773374315,82594,1626894336773374315,imu,0.578690003212,0.392527730267,-0.603959242884,0.382456656484,0.0,0.0,0.0,0.0,0.0,0.0,0.0,0.0,0.0,0.34,0.0,-0.0455555555556,0.0,0.0,0.0,0.0,0.0,0.0,0.0,0.0,0.0,-18.51,-0.17,0.57,0.0,0.0,0.0,0.0,0.0,0.0,0.0,0.0,0.0
1626894336781215409,82595,1626894336781215409,imu,0.579168312009,0.391666462026,-0.604681259044,0.381473490363,0.0,0.0,0.0,0.0,0.0,0.0,0.0,0.0,0.0,0.324444444444,0.00888888888889,-0.0422222222222,0.0,0.0,0.0,0.0,0.0,0.0,0.0,0.0,0.0,-14.48,0.0,0.44,0.0,0.0,0.0,0.0,0.0,0.0,0.0,0.0,0.0
1626894336791120409,82596,1626894336791120409,imu,0.579700509577,0.390983519093,-0.605273736942,0.380424644788,0.0,0.0,0.0,0.0,0.0,0.0,0.0,0.0,0.0,0.312222222222,0.0222222222222,-0.0522222222222,0.0,0.0,0.0,0.0,0.0,0.0,0.0,0.0,0.0,-8.54,0.0,0.07,0.0,0.0,0.0,0.0,0.0,0.0,0.0,0.0,0.0
1626894336803211086,82597,1626894336803211086,imu,0.580211978621,0.390388787635,-0.605847264863,0.379341199992,0.0,0.0,0.0,0.0,0.0,0.0,0.0,0.0,0.0,0.29,0.0344444444444,-0.0644444444444,0.0,0.0,0.0,0.0,0.0,0.0,0.0,0.0,0.0,1.04,0.3,0.02,0.0,0.0,0.0,0.0,0.0,0.0,0.0,0.0,0.0
1626894336813159211,82598,1626894336813159211,imu,0.580689297511,0.389893129336,-0.606324099377,0.378357468496,0.0,0.0,0.0,0.0,0.0,0.0,0.0,0.0,0.0,0.258888888889,0.0377777777778,-0.0644444444444,0.0,0.0,0.0,0.0,0.0,0.0,0.0,0.0,0.0,4.6,0.29,-0.05,0.0,0.0,0.0,0.0,0.0,0.0,0.0,0.0,0.0
1626894336823315096,82599,1626894336823315096,imu,0.581114270064,0.3894643585,-0.606687936607,0.377562532782,0.0,0.0,0.0,0.0,0.0,0.0,0.0,0.0,0.0,0.218888888889,0.0477777777778,-0.0466666666667,0.0,0.0,0.0,0.0,0.0,0.0,0.0,0.0,0.0,6.99,0.39,-0.27,0.0,0.0,0.0,0.0,0.0,0.0,0.0,0.0,0.0
1626894336832399471,82600,1626894336832399471,imu,0.581611208131,0.389103940795,-0.606819039903,0.376957794251,0.0,0.0,0.0,0.0,0.0,0.0,0.0,0.0,0.0,0.17,0.0633333333333,-0.00333333333333,0.0,0.0,0.0,0.0,0.0,0.0,0.0,0.0,0.0,8.71,0.61,-0.46,0.0,0.0,0.0,0.0,0.0,0.0,0.0,0.0,0.0
1626894336841136711,82601,1626894336841136711,imu,0.581975182898,0.38891933565,-0.606816703552,0.376590128839,0.0,0.0,0.0,0.0,0.0,0.0,0.0,0.0,0.0,0.0966666666667,0.0666666666667,-0.00888888888889,0.0,0.0,0.0,0.0,0.0,0.0,0.0,0.0,0.0,10.45,0.09,-1.08,0.0,0.0,0.0,0.0,0.0,0.0,0.0,0.0,0.0
1626894336852885148,82602,1626894336852885148,imu,0.582200381636,0.389028748564,-0.60661385817,0.376455808149,0.0,0.0,0.0,0.0,0.0,0.0,0.0,0.0,0.0,0.00888888888889,0.0677777777778,-0.00777777777778,0.0,0.0,0.0,0.0,0.0,0.0,0.0,0.0,0.0,10.99,0.36,-0.7,0.0,0.0,0.0,0.0,0.0,0.0,0.0,0.0,0.0
1626894336863382544,82603,1626894336863382544,imu,0.582272072946,0.389218973708,-0.606380822298,0.376523733544,0.0,0.0,0.0,0.0,0.0,0.0,0.0,0.0,0.0,-0.0511111111111,0.0422222222222,0.0177777777778,0.0,0.0,0.0,0.0,0.0,0.0,0.0,0.0,0.0,10.79,0.53,-0.37,0.0,0.0,0.0,0.0,0.0,0.0,0.0,0.0,0.0
1626894336873309784,82604,1626894336873309784,imu,0.582292446276,0.389476740009,-0.606035817513,0.376781055646,0.0,0.0,0.0,0.0,0.0,0.0,0.0,0.0,0.0,-0.0877777777778,0.0444444444444,0.0244444444444,0.0,0.0,0.0,0.0,0.0,0.0,0.0,0.0,0.0,10.9,0.5,-0.3,0.0,0.0,0.0,0.0,0.0,0.0,0.0,0.0,0.0
1626894336881185096,82605,1626894336881185096,imu,0.582225488842,0.389900033832,-0.605602400701,0.377143442243,0.0,0.0,0.0,0.0,0.0,0.0,0.0,0.0,0.0,-0.125555555556,0.0533333333333,0.0266666666667,0.0,0.0,0.0,0.0,0.0,0.0,0.0,0.0,0.0,10.91,0.46,-0.42,0.0,0.0,0.0,0.0,0.0,0.0,0.0,0.0,0.0
1626894336891138794,82606,1626894336891138794,imu,0.58220622003,0.390375404477,-0.605094083801,0.377497166462,0.0,0.0,0.0,0.0,0.0,0.0,0.0,0.0,0.0,-0.155555555556,0.0622222222222,0.0288888888889,0.0,0.0,0.0,0.0,0.0,0.0,0.0,0.0,0.0,10.86,0.51,-0.4,0.0,0.0,0.0,0.0,0.0,0.0,0.0,0.0,0.0
1626894336903518377,82607,1626894336903518377,imu,0.582140874599,0.390860784329,-0.604540298061,0.377982641685,0.0,0.0,0.0,0.0,0.0,0.0,0.0,0.0,0.0,-0.178888888889,0.0644444444444,0.0355555555556,0.0,0.0,0.0,0.0,0.0,0.0,0.0,0.0,0.0,10.92,0.52,-0.43,0.0,0.0,0.0,0.0,0.0,0.0,0.0,0.0,0.0
1626894336913434940,82608,1626894336913434940,imu,0.58203637144,0.391482936914,-0.603887149646,0.378543369932,0.0,0.0,0.0,0.0,0.0,0.0,0.0,0.0,0.0,-0.205555555556,0.0666666666667,0.0344444444444,0.0,0.0,0.0,0.0,0.0,0.0,0.0,0.0,0.0,10.94,0.46,-0.43,0.0,0.0,0.0,0.0,0.0,0.0,0.0,0.0,0.0
1626894336923740409,82609,1626894336923740409,imu,0.581836042375,0.392203756247,-0.603197902737,0.37920353837,0.0,0.0,0.0,0.0,0.0,0.0,0.0,0.0,0.0,-0.242222222222,0.0666666666667,0.0344444444444,0.0,0.0,0.0,0.0,0.0,0.0,0.0,0.0,0.0,10.91,0.47,-0.44,0.0,0.0,0.0,0.0,0.0,0.0,0.0,0.0,0.0
1626894336931140721,82610,1626894336931140721,imu,0.58159586833,0.39306090797,-0.602408565475,0.379938532937,0.0,0.0,0.0,0.0,0.0,0.0,0.0,0.0,0.0,-0.285555555556,0.07,0.0355555555556,0.0,0.0,0.0,0.0,0.0,0.0,0.0,0.0,0.0,10.91,0.41,-0.34,0.0,0.0,0.0,0.0,0.0,0.0,0.0,0.0,0.0
1626894336943658013,82611,1626894336943658013,imu,0.581294494994,0.393978996765,-0.601558015819,0.380795501288,0.0,0.0,0.0,0.0,0.0,0.0,0.0,0.0,0.0,-0.318888888889,0.0677777777778,0.0366666666667,0.0,0.0,0.0,0.0,0.0,0.0,0.0,0.0,0.0,10.9,0.38,-0.3,0.0,0.0,0.0,0.0,0.0,0.0,0.0,0.0,0.0
1626894336953012804,82612,1626894336953012804,imu,0.580931049273,0.395018465107,-0.600645351533,0.381712836956,0.0,0.0,0.0,0.0,0.0,0.0,0.0,0.0,0.0,-0.346666666667,0.0677777777778,0.0344444444444,0.0,0.0,0.0,0.0,0.0,0.0,0.0,0.0,0.0,10.91,0.45,-0.26,0.0,0.0,0.0,0.0,0.0,0.0,0.0,0.0,0.0
1626894336963407336,82613,1626894336963407336,imu,0.580497866106,0.396113042901,-0.599723691763,0.382685482124,0.0,0.0,0.0,0.0,0.0,0.0,0.0,0.0,0.0,-0.361111111111,0.0666666666667,0.0344444444444,0.0,0.0,0.0,0.0,0.0,0.0,0.0,0.0,0.0,10.94,0.42,-0.51,0.0,0.0,0.0,0.0,0.0,0.0,0.0,0.0,0.0
1626894336976257232,82614,1626894336976257232,imu,0.580084523707,0.397160142651,-0.598761487538,0.383732260158,0.0,0.0,0.0,0.0,0.0,0.0,0.0,0.0,0.0,-0.373333333333,0.0633333333333,0.0311111111111,0.0,0.0,0.0,0.0,0.0,0.0,0.0,0.0,0.0,10.95,0.5,-0.6,0.0,0.0,0.0,0.0,0.0,0.0,0.0,0.0,0.0
1626894336984847232,82615,1626894336984847232,imu,0.579531323744,0.398317158373,-0.597902985508,0.384706259458,0.0,0.0,0.0,0.0,0.0,0.0,0.0,0.0,0.0,-0.383333333333,0.0488888888889,0.0233333333333,0.0,0.0,0.0,0.0,0.0,0.0,0.0,0.0,0.0,11.03,0.57,-0.56,0.0,0.0,0.0,0.0,0.0,0.0,0.0,0.0,0.0
1626894336991183898,82616,1626894336991183898,imu,0.578970037794,0.399468574464,-0.596975114871,0.385796922717,0.0,0.0,0.0,0.0,0.0,0.0,0.0,0.0,0.0,-0.392222222222,0.0366666666667,0.0122222222222,0.0,0.0,0.0,0.0,0.0,0.0,0.0,0.0,0.0,10.91,0.38,-0.36,0.0,0.0,0.0,0.0,0.0,0.0,0.0,0.0,0.0
1626894337004824002,82617,1626894337004824002,imu,0.57829697526,0.400627054946,-0.596179931857,0.386833375113,0.0,0.0,0.0,0.0,0.0,0.0,0.0,0.0,0.0,-0.396666666667,0.0288888888889,0.00444444444444,0.0,0.0,0.0,0.0,0.0,0.0,0.0,0.0,0.0,10.95,0.47,-0.44,0.0,0.0,0.0,0.0,0.0,0.0,0.0,0.0,0.0
1626894337014016242,82618,1626894337014016242,imu,0.57764288394,0.401798721997,-0.595343268169,0.387882557845,0.0,0.0,0.0,0.0,0.0,0.0,0.0,0.0,0.0,-0.405555555556,0.0277777777778,-0.00111111111111,0.0,0.0,0.0,0.0,0.0,0.0,0.0,0.0,0.0,10.98,0.58,-0.36,0.0,0.0,0.0,0.0,0.0,0.0,0.0,0.0,0.0
1626894337026320200,82619,1626894337026320200,imu,0.576958289771,0.403071252052,-0.594475165807,0.388911268637,0.0,0.0,0.0,0.0,0.0,0.0,0.0,0.0,0.0,-0.41,0.0233333333333,-0.0122222222222,0.0,0.0,0.0,0.0,0.0,0.0,0.0,0.0,0.0,10.98,0.49,-0.53,0.0,0.0,0.0,0.0,0.0,0.0,0.0,0.0,0.0
1626894337032224784,82620,1626894337032224784,imu,0.5761690643,0.404355937605,-0.593686068691,0.389951710997,0.0,0.0,0.0,0.0,0.0,0.0,0.0,0.0,0.0,-0.421111111111,0.0188888888889,-0.02,0.0,0.0,0.0,0.0,0.0,0.0,0.0,0.0,0.0,11.0,0.35,-0.35,0.0,0.0,0.0,0.0,0.0,0.0,0.0,0.0,0.0
1626894337041327961,82621,1626894337041327961,imu,0.575329549211,0.40570926306,-0.592847009494,0.391060515786,0.0,0.0,0.0,0.0,0.0,0.0,0.0,0.0,0.0,-0.443333333333,0.0166666666667,-0.0311111111111,0.0,0.0,0.0,0.0,0.0,0.0,0.0,0.0,0.0,10.9,0.39,-0.39,0.0,0.0,0.0,0.0,0.0,0.0,0.0,0.0,0.0
1626894337053012909,82622,1626894337053012909,imu,0.574452124381,0.407157896488,-0.591907851918,0.392265597471,0.0,0.0,0.0,0.0,0.0,0.0,0.0,0.0,0.0,-0.475555555556,0.0166666666667,-0.03,0.0,0.0,0.0,0.0,0.0,0.0,0.0,0.0,0.0,10.95,0.45,-0.4,0.0,0.0,0.0,0.0,0.0,0.0,0.0,0.0,0.0
1626894337063666138,82623,1626894337063666138,imu,0.573481946413,0.40874931834,-0.590937867727,0.393490645862,0.0,0.0,0.0,0.0,0.0,0.0,0.0,0.0,0.0,-0.512222222222,0.0188888888889,-0.0366666666667,0.0,0.0,0.0,0.0,0.0,0.0,0.0,0.0,0.0,10.92,0.4,-0.34,0.0,0.0,0.0,0.0,0.0,0.0,0.0,0.0,0.0
1626894337073759523,82624,1626894337073759523,imu,0.572431675194,0.410449196682,-0.589887209804,0.394824662206,0.0,0.0,0.0,0.0,0.0,0.0,0.0,0.0,0.0,-0.551111111111,0.0244444444444,-0.04,0.0,0.0,0.0,0.0,0.0,0.0,0.0,0.0,0.0,10.94,0.43,-0.37,0.0,0.0,0.0,0.0,0.0,0.0,0.0,0.0,0.0
1626894337081183534,82625,1626894337081183534,imu,0.571279981612,0.412285926901,-0.588735758828,0.39629497015,0.0,0.0,0.0,0.0,0.0,0.0,0.0,0.0,0.0,-0.59,0.0277777777778,-0.0466666666667,0.0,0.0,0.0,0.0,0.0,0.0,0.0,0.0,0.0,10.99,0.43,-0.24,0.0,0.0,0.0,0.0,0.0,0.0,0.0,0.0,0.0
1626894337091759784,82626,1626894337091759784,imu,0.570115208487,0.414235298148,-0.587509795193,0.397756216006,0.0,0.0,0.0,0.0,0.0,0.0,0.0,0.0,0.0,-0.625555555556,0.0311111111111,-0.05,0.0,0.0,0.0,0.0,0.0,0.0,0.0,0.0,0.0,10.94,0.44,-0.32,0.0,0.0,0.0,0.0,0.0,0.0,0.0,0.0,0.0
1626894337103727544,82627,1626894337103727544,imu,0.568854932397,0.416265090016,-0.586250174429,0.399297099543,0.0,0.0,0.0,0.0,0.0,0.0,0.0,0.0,0.0,-0.65,0.0355555555556,-0.0544444444444,0.0,0.0,0.0,0.0,0.0,0.0,0.0,0.0,0.0,10.9,0.47,-0.15,0.0,0.0,0.0,0.0,0.0,0.0,0.0,0.0,0.0
1626894337113651554,82628,1626894337113651554,imu,0.567566464528,0.418396399004,-0.584900465596,0.400879292292,0.0,0.0,0.0,0.0,0.0,0.0,0.0,0.0,0.0,-0.675555555556,0.0388888888889,-0.0577777777778,0.0,0.0,0.0,0.0,0.0,0.0,0.0,0.0,0.0,10.93,0.57,-0.33,0.0,0.0,0.0,0.0,0.0,0.0,0.0,0.0,0.0
1626894337123926242,82629,1626894337123926242,imu,0.566230601215,0.420537764619,-0.583564813864,0.40247112045,0.0,0.0,0.0,0.0,0.0,0.0,0.0,0.0,0.0,-0.685555555556,0.0388888888889,-0.0611111111111,0.0,0.0,0.0,0.0,0.0,0.0,0.0,0.0,0.0,10.93,0.52,-0.33,0.0,0.0,0.0,0.0,0.0,0.0,0.0,0.0,0.0
1626894337131111138,82630,1626894337131111138,imu,0.56488866765,0.422674664881,-0.582222906614,0.404058668811,0.0,0.0,0.0,0.0,0.0,0.0,0.0,0.0,0.0,-0.684444444444,0.0366666666667,-0.0677777777778,0.0,0.0,0.0,0.0,0.0,0.0,0.0,0.0,0.0,10.95,0.63,-0.27,0.0,0.0,0.0,0.0,0.0,0.0,0.0,0.0,0.0
1626894337141106138,82631,1626894337141106138,imu,0.563540706806,0.424807031233,-0.580874786816,0.405641886433,0.0,0.0,0.0,0.0,0.0,0.0,0.0,0.0,0.0,-0.688888888889,0.0366666666667,-0.0688888888889,0.0,0.0,0.0,0.0,0.0,0.0,0.0,0.0,0.0,10.93,0.59,-0.22,0.0,0.0,0.0,0.0,0.0,0.0,0.0,0.0,0.0
1626894337153270565,82632,1626894337153270565,imu,0.562121624763,0.427053746848,-0.579455234039,0.407278784153,0.0,0.0,0.0,0.0,0.0,0.0,0.0,0.0,0.0,-0.706666666667,0.0366666666667,-0.0722222222222,0.0,0.0,0.0,0.0,0.0,0.0,0.0,0.0,0.0,10.87,0.58,-0.29,0.0,0.0,0.0,0.0,0.0,0.0,0.0,0.0,0.0
1626894337163768846,82633,1626894337163768846,imu,0.560654182241,0.429309984529,-0.578048743741,0.408924779122,0.0,0.0,0.0,0.0,0.0,0.0,0.0,0.0,0.0,-0.722222222222,0.0333333333333,-0.0733333333333,0.0,0.0,0.0,0.0,0.0,0.0,0.0,0.0,0.0,10.88,0.52,-0.36,0.0,0.0,0.0,0.0,0.0,0.0,0.0,0.0,0.0
1626894337174609731,82634,1626894337174609731,imu,0.559205425439,0.431580611578,-0.576539450851,0.410645503422,0.0,0.0,0.0,0.0,0.0,0.0,0.0,0.0,0.0,-0.744444444444,0.0344444444444,-0.0677777777778,0.0,0.0,0.0,0.0,0.0,0.0,0.0,0.0,0.0,10.91,0.44,-0.42,0.0,0.0,0.0,0.0,0.0,0.0,0.0,0.0,0.0
1626894337181151867,82635,1626894337181151867,imu,0.557607897071,0.433952730755,-0.575002626785,0.412468713705,0.0,0.0,0.0,0.0,0.0,0.0,0.0,0.0,0.0,-0.776666666667,0.03,-0.06,0.0,0.0,0.0,0.0,0.0,0.0,0.0,0.0,0.0,10.89,0.43,-0.21,0.0,0.0,0.0,0.0,0.0,0.0,0.0,0.0,0.0
1626894337191170044,82636,1626894337191170044,imu,0.556022926419,0.436273532167,-0.573417716104,0.414362200599,0.0,0.0,0.0,0.0,0.0,0.0,0.0,0.0,0.0,-0.791111111111,0.0255555555556,-0.0477777777778,0.0,0.0,0.0,0.0,0.0,0.0,0.0,0.0,0.0,10.83,0.39,-0.15,0.0,0.0,0.0,0.0,0.0,0.0,0.0,0.0,0.0
1626894337203812179,82637,1626894337203812179,imu,0.554440706308,0.438596534074,-0.571713572873,0.416379843508,0.0,0.0,0.0,0.0,0.0,0.0,0.0,0.0,0.0,-0.807777777778,0.0288888888889,-0.0333333333333,0.0,0.0,0.0,0.0,0.0,0.0,0.0,0.0,0.0,10.9,0.41,-0.25,0.0,0.0,0.0,0.0,0.0,0.0,0.0,0.0,0.0
1626894337213645565,82638,1626894337213645565,imu,0.552840471099,0.440966262276,-0.569929821056,0.418444940368,0.0,0.0,0.0,0.0,0.0,0.0,0.0,0.0,0.0,-0.828888888889,0.0277777777778,-0.0177777777778,0.0,0.0,0.0,0.0,0.0,0.0,0.0,0.0,0.0,10.87,0.52,-0.2,0.0,0.0,0.0,0.0,0.0,0.0,0.0,0.0,0.0
1626894337223602700,82639,1626894337223602700,imu,0.551280645881,0.443246241185,-0.568126688647,0.420540705283,0.0,0.0,0.0,0.0,0.0,0.0,0.0,0.0,0.0,-0.825555555556,0.0222222222222,-0.01,0.0,0.0,0.0,0.0,0.0,0.0,0.0,0.0,0.0,10.84,0.53,-0.19,0.0,0.0,0.0,0.0,0.0,0.0,0.0,0.0,0.0
1626894337231186450,82640,1626894337231186450,imu,0.549689210988,0.44543991359,-0.566413044411,0.422612491326,0.0,0.0,0.0,0.0,0.0,0.0,0.0,0.0,0.0,-0.802222222222,0.0155555555556,-0.00222222222222,0.0,0.0,0.0,0.0,0.0,0.0,0.0,0.0,0.0,10.9,0.49,-0.18,0.0,0.0,0.0,0.0,0.0,0.0,0.0,0.0,0.0
1626894337241178273,82641,1626894337241178273,imu,0.548100867971,0.447513982624,-0.564763622643,0.42468661908,0.0,0.0,0.0,0.0,0.0,0.0,0.0,0.0,0.0,-0.778888888889,0.00888888888889,0.00666666666667,0.0,0.0,0.0,0.0,0.0,0.0,0.0,0.0,0.0,10.84,0.46,-0.25,0.0,0.0,0.0,0.0,0.0,0.0,0.0,0.0,0.0
1626894337255108846,82642,1626894337255108846,imu,0.546619800247,0.449514831266,-0.563098959031,0.426688144655,0.0,0.0,0.0,0.0,0.0,0.0,0.0,0.0,0.0,-0.76,-0.00222222222222,0.0177777777778,0.0,0.0,0.0,0.0,0.0,0.0,0.0,0.0,0.0,10.85,0.51,-0.22,0.0,0.0,0.0,0.0,0.0,0.0,0.0,0.0,0.0
1626894337264352804,82643,1626894337264352804,imu,0.545118893151,0.451427537089,-0.561476732515,0.428721879464,0.0,0.0,0.0,0.0,0.0,0.0,0.0,0.0,0.0,-0.744444444444,-0.0144444444444,0.0277777777778,0.0,0.0,0.0,0.0,0.0,0.0,0.0,0.0,0.0,10.89,0.46,-0.24,0.0,0.0,0.0,0.0,0.0,0.0,0.0,0.0,0.0
1626894337274999471,82644,1626894337274999471,imu,0.543708452482,0.453192103691,-0.559882985476,0.430730865421,0.0,0.0,0.0,0.0,0.0,0.0,0.0,0.0,0.0,-0.723333333333,-0.0177777777778,0.0355555555556,0.0,0.0,0.0,0.0,0.0,0.0,0.0,0.0,0.0,10.81,0.51,-0.08,0.0,0.0,0.0,0.0,0.0,0.0,0.0,0.0,0.0
1626894337281438169,82645,1626894337281438169,imu,0.542245203159,0.454902465009,-0.558358748143,0.432746340657,0.0,0.0,0.0,0.0,0.0,0.0,0.0,0.0,0.0,-0.708888888889,-0.0277777777778,0.0466666666667,0.0,0.0,0.0,0.0,0.0,0.0,0.0,0.0,0.0,10.83,0.48,-0.17,0.0,0.0,0.0,0.0,0.0,0.0,0.0,0.0,0.0
1626894337291218950,82646,1626894337291218950,imu,0.540834007436,0.456544224763,-0.556825262368,0.434754614036,0.0,0.0,0.0,0.0,0.0,0.0,0.0,0.0,0.0,-0.691111111111,-0.0355555555556,0.0533333333333,0.0,0.0,0.0,0.0,0.0,0.0,0.0,0.0,0.0,10.87,0.45,-0.16,0.0,0.0,0.0,0.0,0.0,0.0,0.0,0.0,0.0
1626894337304107700,82647,1626894337304107700,imu,0.539486413949,0.458066018406,-0.555355456559,0.436703845662,0.0,0.0,0.0,0.0,0.0,0.0,0.0,0.0,0.0,-0.672222222222,-0.0444444444444,0.0622222222222,0.0,0.0,0.0,0.0,0.0,0.0,0.0,0.0,0.0,10.88,0.46,-0.12,0.0,0.0,0.0,0.0,0.0,0.0,0.0,0.0,0.0
1626894337313729471,82648,1626894337313729471,imu,0.538090738405,0.459537791453,-0.553898984916,0.438724617474,0.0,0.0,0.0,0.0,0.0,0.0,0.0,0.0,0.0,-0.66,-0.0466666666667,0.0666666666667,0.0,0.0,0.0,0.0,0.0,0.0,0.0,0.0,0.0,10.83,0.58,-0.31,0.0,0.0,0.0,0.0,0.0,0.0,0.0,0.0,0.0
1626894337323698169,82649,1626894337323698169,imu,0.53674737311,0.461002150228,-0.552433531274,0.440677283814,0.0,0.0,0.0,0.0,0.0,0.0,0.0,0.0,0.0,-0.658888888889,-0.0566666666667,0.0677777777778,0.0,0.0,0.0,0.0,0.0,0.0,0.0,0.0,0.0,10.88,0.54,-0.24,0.0,0.0,0.0,0.0,0.0,0.0,0.0,0.0,0.0
1626894337331228117,82650,1626894337331228117,imu,0.535337805909,0.462401005309,-0.551023795661,0.442686706904,0.0,0.0,0.0,0.0,0.0,0.0,0.0,0.0,0.0,-0.666666666667,-0.0644444444444,0.0655555555556,0.0,0.0,0.0,0.0,0.0,0.0,0.0,0.0,0.0,10.9,0.51,-0.28,0.0,0.0,0.0,0.0,0.0,0.0,0.0,0.0,0.0
1626894337341184731,82651,1626894337341184731,imu,0.533867612575,0.463861193046,-0.549553445024,0.444757436016,0.0,0.0,0.0,0.0,0.0,0.0,0.0,0.0,0.0,-0.668888888889,-0.0688888888889,0.0688888888889,0.0,0.0,0.0,0.0,0.0,0.0,0.0,0.0,0.0,10.78,0.54,-0.39,0.0,0.0,0.0,0.0,0.0,0.0,0.0,0.0,0.0
1626894337353167908,82652,1626894337353167908,imu,0.532363112405,0.465283651211,-0.548110611029,0.446850532666,0.0,0.0,0.0,0.0,0.0,0.0,0.0,0.0,0.0,-0.685555555556,-0.0755555555556,0.0677777777778,0.0,0.0,0.0,0.0,0.0,0.0,0.0,0.0,0.0,10.82,0.4,-0.35,0.0,0.0,0.0,0.0,0.0,0.0,0.0,0.0,0.0
1626894337363846502,82653,1626894337363846502,imu,0.530766739037,0.466862326,-0.546574994029,0.448978856067,0.0,0.0,0.0,0.0,0.0,0.0,0.0,0.0,0.0,-0.72,-0.0777777777778,0.0655555555556,0.0,0.0,0.0,0.0,0.0,0.0,0.0,0.0,0.0,10.87,0.51,-0.27,0.0,0.0,0.0,0.0,0.0,0.0,0.0,0.0,0.0
1626894337373978221,82654,1626894337373978221,imu,0.529126224381,0.468455850978,-0.544934701958,0.451243531763,0.0,0.0,0.0,0.0,0.0,0.0,0.0,0.0,0.0,-0.758888888889,-0.0766666666667,0.0666666666667,0.0,0.0,0.0,0.0,0.0,0.0,0.0,0.0,0.0,10.8,0.41,-0.25,0.0,0.0,0.0,0.0,0.0,0.0,0.0,0.0,0.0
1626894337381645721,82655,1626894337381645721,imu,0.527348149572,0.470218766702,-0.543217422591,0.453556030031,0.0,0.0,0.0,0.0,0.0,0.0,0.0,0.0,0.0,-0.793333333333,-0.0711111111111,0.0644444444444,0.0,0.0,0.0,0.0,0.0,0.0,0.0,0.0,0.0,10.87,0.56,-0.23,0.0,0.0,0.0,0.0,0.0,0.0,0.0,0.0,0.0
1626894337391169731,82656,1626894337391169731,imu,0.525523267143,0.472055394667,-0.54139272701,0.455941789264,0.0,0.0,0.0,0.0,0.0,0.0,0.0,0.0,0.0,-0.827777777778,-0.0633333333333,0.0588888888889,0.0,0.0,0.0,0.0,0.0,0.0,0.0,0.0,0.0,10.84,0.37,-0.27,0.0,0.0,0.0,0.0,0.0,0.0,0.0,0.0,0.0
1626894337403855617,82657,1626894337403855617,imu,0.523677553608,0.473934289483,-0.539485535704,0.458370446107,0.0,0.0,0.0,0.0,0.0,0.0,0.0,0.0,0.0,-0.855555555556,-0.0622222222222,0.06,0.0,0.0,0.0,0.0,0.0,0.0,0.0,0.0,0.0,10.83,0.42,-0.29,0.0,0.0,0.0,0.0,0.0,0.0,0.0,0.0,0.0
1626894337413729783,82658,1626894337413729783,imu,0.521723764584,0.475947814252,-0.537470691498,0.460872267942,0.0,0.0,0.0,0.0,0.0,0.0,0.0,0.0,0.0,-0.887777777778,-0.0533333333333,0.06,0.0,0.0,0.0,0.0,0.0,0.0,0.0,0.0,0.0,10.81,0.46,-0.35,0.0,0.0,0.0,0.0,0.0,0.0,0.0,0.0,0.0
1626894337423703117,82659,1626894337423703117,imu,0.51971780077,0.478030512698,-0.535403939912,0.463381978091,0.0,0.0,0.0,0.0,0.0,0.0,0.0,0.0,0.0,-0.918888888889,-0.05,0.0577777777778,0.0,0.0,0.0,0.0,0.0,0.0,0.0,0.0,0.0,10.83,0.52,-0.36,0.0,0.0,0.0,0.0,0.0,0.0,0.0,0.0,0.0
1626894337432489940,82660,1626894337432489940,imu,0.517571351617,0.480279359183,-0.533196147137,0.465997319527,0.0,0.0,0.0,0.0,0.0,0.0,0.0,0.0,0.0,-0.96,-0.0422222222222,0.05,0.0,0.0,0.0,0.0,0.0,0.0,0.0,0.0,0.0,10.85,0.43,-0.21,0.0,0.0,0.0,0.0,0.0,0.0,0.0,0.0,0.0
1626894337443533690,82661,1626894337443533690,imu,0.515387370986,0.482611077971,-0.530890496546,0.468633850596,0.0,0.0,0.0,0.0,0.0,0.0,0.0,0.0,0.0,-0.995555555556,-0.0366666666667,0.0477777777778,0.0,0.0,0.0,0.0,0.0,0.0,0.0,0.0,0.0,10.82,0.26,-0.25,0.0,0.0,0.0,0.0,0.0,0.0,0.0,0.0,0.0
1626894337453442127,82662,1626894337453442127,imu,0.513191743768,0.48493201763,-0.528572847411,0.471259925503,0.0,0.0,0.0,0.0,0.0,0.0,0.0,0.0,0.0,-0.992222222222,-0.03,0.0477777777778,0.0,0.0,0.0,0.0,0.0,0.0,0.0,0.0,0.0,10.83,0.27,-0.18,0.0,0.0,0.0,0.0,0.0,0.0,0.0,0.0,0.0
1626894337464044836,82663,1626894337464044836,imu,0.511059690831,0.487194369069,-0.526257811339,0.473827347417,0.0,0.0,0.0,0.0,0.0,0.0,0.0,0.0,0.0,-0.983333333333,-0.0233333333333,0.0544444444444,0.0,0.0,0.0,0.0,0.0,0.0,0.0,0.0,0.0,10.87,0.37,-0.24,0.0,0.0,0.0,0.0,0.0,0.0,0.0,0.0,0.0
1626894337475191658,82664,1626894337475191658,imu,0.508902873779,0.48949400908,-0.523856244381,0.476432697616,0.0,0.0,0.0,0.0,0.0,0.0,0.0,0.0,0.0,-0.993333333333,-0.0111111111111,0.0544444444444,0.0,0.0,0.0,0.0,0.0,0.0,0.0,0.0,0.0,10.81,0.35,-0.29,0.0,0.0,0.0,0.0,0.0,0.0,0.0,0.0,0.0
1626894337481038690,82665,1626894337481038690,imu,0.506722236319,0.491951484549,-0.521309879595,0.47901181771,0.0,0.0,0.0,0.0,0.0,0.0,0.0,0.0,0.0,-1.03111111111,0.00222222222222,0.0533333333333,0.0,0.0,0.0,0.0,0.0,0.0,0.0,0.0,0.0,10.81,0.42,-0.37,0.0,0.0,0.0,0.0,0.0,0.0,0.0,0.0,0.0
1626894337491118690,82666,1626894337491118690,imu,0.504409461635,0.494460436678,-0.51869211096,0.481703711426,0.0,0.0,0.0,0.0,0.0,0.0,0.0,0.0,0.0,-1.06111111111,0.0111111111111,0.0477777777778,0.0,0.0,0.0,0.0,0.0,0.0,0.0,0.0,0.0,10.85,0.52,-0.36,0.0,0.0,0.0,0.0,0.0,0.0,0.0,0.0,0.0
1626894337504170565,82667,1626894337504170565,imu,0.502068662217,0.497124878891,-0.515984496764,0.484307662861,0.0,0.0,0.0,0.0,0.0,0.0,0.0,0.0,0.0,-1.09666666667,0.0211111111111,0.0377777777778,0.0,0.0,0.0,0.0,0.0,0.0,0.0,0.0,0.0,10.84,0.48,-0.38,0.0,0.0,0.0,0.0,0.0,0.0,0.0,0.0,0.0
1626894337513819575,82668,1626894337513819575,imu,0.499578547467,0.499883726787,-0.513189545156,0.487005159467,0.0,0.0,0.0,0.0,0.0,0.0,0.0,0.0,0.0,-1.13,0.03,0.0277777777778,0.0,0.0,0.0,0.0,0.0,0.0,0.0,0.0,0.0,10.79,0.44,-0.3,0.0,0.0,0.0,0.0,0.0,0.0,0.0,0.0,0.0
1626894337523877179,82669,1626894337523877179,imu,0.497059549662,0.502735696287,-0.510242857954,0.4897354895,0.0,0.0,0.0,0.0,0.0,0.0,0.0,0.0,0.0,-1.15222222222,0.04,0.0244444444444,0.0,0.0,0.0,0.0,0.0,0.0,0.0,0.0,0.0,10.8,0.43,-0.33,0.0,0.0,0.0,0.0,0.0,0.0,0.0,0.0,0.0
1626894337531106554,82670,1626894337531106554,imu,0.49450919671,0.505617648179,-0.507326640713,0.492372956043,0.0,0.0,0.0,0.0,0.0,0.0,0.0,0.0,0.0,-1.16222222222,0.05,0.0233333333333,0.0,0.0,0.0,0.0,0.0,0.0,0.0,0.0,0.0,10.78,0.3,-0.16,0.0,0.0,0.0,0.0,0.0,0.0,0.0,0.0,0.0
1626894337541190929,82671,1626894337541190929,imu,0.492005223902,0.508484743869,-0.504334346248,0.4949959516,0.0,0.0,0.0,0.0,0.0,0.0,0.0,0.0,0.0,-1.15666666667,0.06,0.0222222222222,0.0,0.0,0.0,0.0,0.0,0.0,0.0,0.0,0.0,10.8,0.3,-0.1,0.0,0.0,0.0,0.0,0.0,0.0,0.0,0.0,0.0
1626894337554938846,82672,1626894337554938846,imu,0.489562676418,0.511352213319,-0.501281418953,0.497558276793,0.0,0.0,0.0,0.0,0.0,0.0,0.0,0.0,0.0,-1.14666666667,0.0755555555556,0.03,0.0,0.0,0.0,0.0,0.0,0.0,0.0,0.0,0.0,10.79,0.34,-0.13,0.0,0.0,0.0,0.0,0.0,0.0,0.0,0.0,0.0
1626894337564662492,82673,1626894337564662492,imu,0.487135647235,0.514175002168,-0.498244366417,0.500075473975,0.0,0.0,0.0,0.0,0.0,0.0,0.0,0.0,0.0,-1.14111111111,0.0888888888889,0.03,0.0,0.0,0.0,0.0,0.0,0.0,0.0,0.0,0.0,10.79,0.44,-0.25,0.0,0.0,0.0,0.0,0.0,0.0,0.0,0.0,0.0
1626894337573970929,82674,1626894337573970929,imu,0.484724966762,0.517072515538,-0.495100595615,0.502546635144,0.0,0.0,0.0,0.0,0.0,0.0,0.0,0.0,0.0,-1.15333333333,0.102222222222,0.0311111111111,0.0,0.0,0.0,0.0,0.0,0.0,0.0,0.0,0.0,10.73,0.35,-0.26,0.0,0.0,0.0,0.0,0.0,0.0,0.0,0.0,0.0
1626894337581191242,82675,1626894337581191242,imu,0.482187637418,0.520091247903,-0.491831390166,0.505076291092,0.0,0.0,0.0,0.0,0.0,0.0,0.0,0.0,0.0,-1.18555555556,0.108888888889,0.0277777777778,0.0,0.0,0.0,0.0,0.0,0.0,0.0,0.0,0.0,10.76,0.22,-0.25,0.0,0.0,0.0,0.0,0.0,0.0,0.0,0.0,0.0
1626894337591870044,82676,1626894337591870044,imu,0.479604204355,0.523121358555,-0.488515150376,0.507618753833,0.0,0.0,0.0,0.0,0.0,0.0,0.0,0.0,0.0,-1.21111111111,0.118888888889,0.0222222222222,0.0,0.0,0.0,0.0,0.0,0.0,0.0,0.0,0.0,10.79,0.39,-0.11,0.0,0.0,0.0,0.0,0.0,0.0,0.0,0.0,0.0
1626894337603937596,82677,1626894337603937596,imu,0.477001049517,0.526196551233,-0.485118917666,0.510143924743,0.0,0.0,0.0,0.0,0.0,0.0,0.0,0.0,0.0,-1.22888888889,0.121111111111,0.0266666666667,0.0,0.0,0.0,0.0,0.0,0.0,0.0,0.0,0.0,10.74,0.35,-0.09,0.0,0.0,0.0,0.0,0.0,0.0,0.0,0.0,0.0
1626894337614793221,82678,1626894337614793221,imu,0.474287771242,0.529339575342,-0.481611736311,0.512738587853,0.0,0.0,0.0,0.0,0.0,0.0,0.0,0.0,0.0,-1.25777777778,0.128888888889,0.0211111111111,0.0,0.0,0.0,0.0,0.0,0.0,0.0,0.0,0.0,10.79,0.22,-0.25,0.0,0.0,0.0,0.0,0.0,0.0,0.0,0.0,0.0
1626894337623924210,82679,1626894337623924210,imu,0.471505130084,0.532541392878,-0.478036010203,0.51532916677,0.0,0.0,0.0,0.0,0.0,0.0,0.0,0.0,0.0,-1.28111111111,0.128888888889,0.0222222222222,0.0,0.0,0.0,0.0,0.0,0.0,0.0,0.0,0.0,10.75,0.34,-0.06,0.0,0.0,0.0,0.0,0.0,0.0,0.0,0.0,0.0
1626894337631157544,82680,1626894337631157544,imu,0.468688049068,0.535765554723,-0.474364307508,0.517943323921,0.0,0.0,0.0,0.0,0.0,0.0,0.0,0.0,0.0,-1.30444444444,0.131111111111,0.0211111111111,0.0,0.0,0.0,0.0,0.0,0.0,0.0,0.0,0.0,10.82,0.51,-0.07,0.0,0.0,0.0,0.0,0.0,0.0,0.0,0.0,0.0
1626894337641973533,82681,1626894337641973533,imu,0.465757498021,0.538999405716,-0.47070132679,0.520566858946,0.0,0.0,0.0,0.0,0.0,0.0,0.0,0.0,0.0,-1.31444444444,0.135555555556,0.0166666666667,0.0,0.0,0.0,0.0,0.0,0.0,0.0,0.0,0.0,10.88,0.34,-0.12,0.0,0.0,0.0,0.0,0.0,0.0,0.0,0.0,0.0
1626894337653994367,82682,1626894337653994367,imu,0.462821939871,0.542227365662,-0.466972261895,0.523184711667,0.0,0.0,0.0,0.0,0.0,0.0,0.0,0.0,0.0,-1.31777777778,0.13,0.0133333333333,0.0,0.0,0.0,0.0,0.0,0.0,0.0,0.0,0.0,10.8,0.38,-0.11,0.0,0.0,0.0,0.0,0.0,0.0,0.0,0.0,0.0
1626894337664401606,82683,1626894337664401606,imu,0.459786654948,0.545481658738,-0.463265725615,0.52576692496,0.0,0.0,0.0,0.0,0.0,0.0,0.0,0.0,0.0,-1.32555555556,0.125555555556,0.00777777777778,0.0,0.0,0.0,0.0,0.0,0.0,0.0,0.0,0.0,10.79,0.49,-0.27,0.0,0.0,0.0,0.0,0.0,0.0,0.0,0.0,0.0
1626894337674333898,82684,1626894337674333898,imu,0.456732786537,0.548714118798,-0.459540444986,0.528328077009,0.0,0.0,0.0,0.0,0.0,0.0,0.0,0.0,0.0,-1.33222222222,0.122222222222,0.00555555555556,0.0,0.0,0.0,0.0,0.0,0.0,0.0,0.0,0.0,10.82,0.4,-0.23,0.0,0.0,0.0,0.0,0.0,0.0,0.0,0.0,0.0
1626894337681268481,82685,1626894337681268481,imu,0.45361281063,0.551879310242,-0.455810073975,0.530944273368,0.0,0.0,0.0,0.0,0.0,0.0,0.0,0.0,0.0,-1.33555555556,0.112222222222,-0.00111111111111,0.0,0.0,0.0,0.0,0.0,0.0,0.0,0.0,0.0,10.8,0.41,-0.17,0.0,0.0,0.0,0.0,0.0,0.0,0.0,0.0,0.0
1626894337693068742,82686,1626894337693068742,imu,0.450440703253,0.555055251407,-0.452088657046,0.533509781455,0.0,0.0,0.0,0.0,0.0,0.0,0.0,0.0,0.0,-1.33666666667,0.102222222222,-0.00555555555556,0.0,0.0,0.0,0.0,0.0,0.0,0.0,0.0,0.0,10.82,0.27,-0.08,0.0,0.0,0.0,0.0,0.0,0.0,0.0,0.0,0.0
1626894337705030356,82687,1626894337705030356,imu,0.447263264021,0.558163557516,-0.4483008562,0.536129982419,0.0,0.0,0.0,0.0,0.0,0.0,0.0,0.0,0.0,-1.34111111111,0.103333333333,-0.00444444444444,0.0,0.0,0.0,0.0,0.0,0.0,0.0,0.0,0.0,10.88,0.43,0.04,0.0,0.0,0.0,0.0,0.0,0.0,0.0,0.0,0.0
1626894337714428377,82688,1626894337714428377,imu,0.444030118258,0.561339518573,-0.444457363733,0.538695508419,0.0,0.0,0.0,0.0,0.0,0.0,0.0,0.0,0.0,-1.35666666667,0.105555555556,-0.00666666666667,0.0,0.0,0.0,0.0,0.0,0.0,0.0,0.0,0.0,10.82,0.47,-0.02,0.0,0.0,0.0,0.0,0.0,0.0,0.0,0.0,0.0
1626894337724125304,82689,1626894337724125304,imu,0.440729304851,0.564507040655,-0.440607236078,0.541252939402,0.0,0.0,0.0,0.0,0.0,0.0,0.0,0.0,0.0,-1.36333333333,0.103333333333,-0.0111111111111,0.0,0.0,0.0,0.0,0.0,0.0,0.0,0.0,0.0,10.8,0.45,0.05,0.0,0.0,0.0,0.0,0.0,0.0,0.0,0.0,0.0
1626894337731266763,82690,1626894337731266763,imu,0.437375863674,0.567624271863,-0.436765514995,0.543820673365,0.0,0.0,0.0,0.0,0.0,0.0,0.0,0.0,0.0,-1.36888888889,0.1,-0.0133333333333,0.0,0.0,0.0,0.0,0.0,0.0,0.0,0.0,0.0,10.76,0.27,-0.01,0.0,0.0,0.0,0.0,0.0,0.0,0.0,0.0,0.0
1626894337741775929,82691,1626894337741775929,imu,0.434098252296,0.570638998976,-0.432938540992,0.54634609903,0.0,0.0,0.0,0.0,0.0,0.0,0.0,0.0,0.0,-1.33888888889,0.0933333333333,-0.00666666666667,0.0,0.0,0.0,0.0,0.0,0.0,0.0,0.0,0.0,10.73,0.23,0.13,0.0,0.0,0.0,0.0,0.0,0.0,0.0,0.0,0.0
1626894337754891762,82692,1626894337754891762,imu,0.430844983538,0.573544455349,-0.429197042675,0.548825342397,0.0,0.0,0.0,0.0,0.0,0.0,0.0,0.0,0.0,-1.30333333333,0.0833333333333,0.00111111111111,0.0,0.0,0.0,0.0,0.0,0.0,0.0,0.0,0.0,10.73,0.18,0.18,0.0,0.0,0.0,0.0,0.0,0.0,0.0,0.0,0.0
1626894337764836085,82693,1626894337764836085,imu,0.427726677325,0.576283574101,-0.4255904853,0.55119857633,0.0,0.0,0.0,0.0,0.0,0.0,0.0,0.0,0.0,-1.26666666667,0.0766666666667,0.0122222222222,0.0,0.0,0.0,0.0,0.0,0.0,0.0,0.0,0.0,10.78,0.2,0.1,0.0,0.0,0.0,0.0,0.0,0.0,0.0,0.0,0.0
1626894337776431137,82694,1626894337776431137,imu,0.424687608694,0.578925261348,-0.422002030254,0.55353433792,0.0,0.0,0.0,0.0,0.0,0.0,0.0,0.0,0.0,-1.23222222222,0.0733333333333,0.02,0.0,0.0,0.0,0.0,0.0,0.0,0.0,0.0,0.0,10.72,0.36,0.15,0.0,0.0,0.0,0.0,0.0,0.0,0.0,0.0,0.0
1626894337782274783,82695,1626894337782274783,imu,0.421756853695,0.581426308002,-0.418521960316,0.55579130387,0.0,0.0,0.0,0.0,0.0,0.0,0.0,0.0,0.0,-1.19333333333,0.0633333333333,0.0255555555556,0.0,0.0,0.0,0.0,0.0,0.0,0.0,0.0,0.0,10.72,0.36,0.15,0.0,0.0,0.0,0.0,0.0,0.0,0.0,0.0,0.0
1626894337791697231,82696,1626894337791697231,imu,0.418946849791,0.58380341175,-0.415101620837,0.557985445919,0.0,0.0,0.0,0.0,0.0,0.0,0.0,0.0,0.0,-1.15111111111,0.06,0.0288888888889,0.0,0.0,0.0,0.0,0.0,0.0,0.0,0.0,0.0,10.77,0.3,0.12,0.0,0.0,0.0,0.0,0.0,0.0,0.0,0.0,0.0
1626894337803946919,82697,1626894337803946919,imu,0.416133226836,0.586053277219,-0.411799777275,0.560174648856,0.0,0.0,0.0,0.0,0.0,0.0,0.0,0.0,0.0,-1.11666666667,0.0488888888889,0.0355555555556,0.0,0.0,0.0,0.0,0.0,0.0,0.0,0.0,0.0,10.7,0.24,0.24,0.0,0.0,0.0,0.0,0.0,0.0,0.0,0.0,0.0
1626894337814306762,82698,1626894337814306762,imu,0.41344648205,0.588187739522,-0.408624770789,0.562248153624,0.0,0.0,0.0,0.0,0.0,0.0,0.0,0.0,0.0,-1.07555555556,0.0433333333333,0.0388888888889,0.0,0.0,0.0,0.0,0.0,0.0,0.0,0.0,0.0,10.74,0.29,0.13,0.0,0.0,0.0,0.0,0.0,0.0,0.0,0.0,0.0
1626894337826759940,82699,1626894337826759940,imu,0.410894226824,0.590217940194,-0.405462024479,0.564277648097,0.0,0.0,0.0,0.0,0.0,0.0,0.0,0.0,0.0,-1.04444444444,0.0377777777778,0.05,0.0,0.0,0.0,0.0,0.0,0.0,0.0,0.0,0.0,10.75,0.21,0.1,0.0,0.0,0.0,0.0,0.0,0.0,0.0,0.0,0.0
1626894337832639835,82700,1626894337832639835,imu,0.408396126497,0.592116398617,-0.402475572877,0.566236865268,0.0,0.0,0.0,0.0,0.0,0.0,0.0,0.0,0.0,-1.00555555556,0.0288888888889,0.0544444444444,0.0,0.0,0.0,0.0,0.0,0.0,0.0,0.0,0.0,10.72,0.16,0.16,0.0,0.0,0.0,0.0,0.0,0.0,0.0,0.0,0.0
1626894337841115512,82701,1626894337841115512,imu,0.405995570299,0.593918053905,-0.399526007693,0.568161870702,0.0,0.0,0.0,0.0,0.0,0.0,0.0,0.0,0.0,-0.972222222222,0.02,0.0577777777778,0.0,0.0,0.0,0.0,0.0,0.0,0.0,0.0,0.0,10.69,0.18,0.19,0.0,0.0,0.0,0.0,0.0,0.0,0.0,0.0,0.0
1626894337854967700,82702,1626894337854967700,imu,0.403620229466,0.595634329254,-0.396662312309,0.570060931984,0.0,0.0,0.0,0.0,0.0,0.0,0.0,0.0,0.0,-0.941111111111,0.0166666666667,0.0655555555556,0.0,0.0,0.0,0.0,0.0,0.0,0.0,0.0,0.0,10.73,0.32,0.13,0.0,0.0,0.0,0.0,0.0,0.0,0.0,0.0,0.0
1626894337864379106,82703,1626894337864379106,imu,0.401372679516,0.597237175953,-0.393865252573,0.571907239518,0.0,0.0,0.0,0.0,0.0,0.0,0.0,0.0,0.0,-0.916666666667,0.0111111111111,0.0688888888889,0.0,0.0,0.0,0.0,0.0,0.0,0.0,0.0,0.0,10.78,0.32,0.17,0.0,0.0,0.0,0.0,0.0,0.0,0.0,0.0,0.0
1626894337876180825,82704,1626894337876180825,imu,0.399122544389,0.59877537245,-0.391126665307,0.573750102042,0.0,0.0,0.0,0.0,0.0,0.0,0.0,0.0,0.0,-0.891111111111,0.00555555555556,0.0644444444444,0.0,0.0,0.0,0.0,0.0,0.0,0.0,0.0,0.0,10.7,0.3,0.15,0.0,0.0,0.0,0.0,0.0,0.0,0.0,0.0,0.0
1626894337882331398,82705,1626894337882331398,imu,0.396911588564,0.600280712522,-0.388488737692,0.575500441115,0.0,0.0,0.0,0.0,0.0,0.0,0.0,0.0,0.0,-0.876666666667,0.00111111111111,0.0622222222222,0.0,0.0,0.0,0.0,0.0,0.0,0.0,0.0,0.0,10.7,0.19,0.13,0.0,0.0,0.0,0.0,0.0,0.0,0.0,0.0,0.0
1626894337891173533,82706,1626894337891173533,imu,0.39476932138,0.601736354281,-0.385797291349,0.577261632903,0.0,0.0,0.0,0.0,0.0,0.0,0.0,0.0,0.0,-0.857777777778,-0.00333333333333,0.0633333333333,0.0,0.0,0.0,0.0,0.0,0.0,0.0,0.0,0.0,10.71,0.23,0.11,0.0,0.0,0.0,0.0,0.0,0.0,0.0,0.0,0.0
1626894337904453065,82707,1626894337904453065,imu,0.392644262867,0.603157252549,-0.38324472665,0.578925980614,0.0,0.0,0.0,0.0,0.0,0.0,0.0,0.0,0.0,-0.841111111111,-0.01,0.0633333333333,0.0,0.0,0.0,0.0,0.0,0.0,0.0,0.0,0.0,10.72,0.29,0.13,0.0,0.0,0.0,0.0,0.0,0.0,0.0,0.0,0.0
1626894337914472127,82708,1626894337914472127,imu,0.390504401162,0.604494465319,-0.380738739364,0.580629629299,0.0,0.0,0.0,0.0,0.0,0.0,0.0,0.0,0.0,-0.822222222222,-0.0122222222222,0.06,0.0,0.0,0.0,0.0,0.0,0.0,0.0,0.0,0.0,10.74,0.21,0.06,0.0,0.0,0.0,0.0,0.0,0.0,0.0,0.0,0.0
1626894337925031242,82709,1626894337925031242,imu,0.388429565574,0.605776781635,-0.378297681871,0.582278135697,0.0,0.0,0.0,0.0,0.0,0.0,0.0,0.0,0.0,-0.805555555556,-0.02,0.0577777777778,0.0,0.0,0.0,0.0,0.0,0.0,0.0,0.0,0.0,10.7,0.19,0.1,0.0,0.0,0.0,0.0,0.0,0.0,0.0,0.0,0.0
1626894337934315356,82710,1626894337934315356,imu,0.386340212259,0.607036295597,-0.375903533539,0.583904709428,0.0,0.0,0.0,0.0,0.0,0.0,0.0,0.0,0.0,-0.792222222222,-0.0277777777778,0.0577777777778,0.0,0.0,0.0,0.0,0.0,0.0,0.0,0.0,0.0,10.72,0.22,0.32,0.0,0.0,0.0,0.0,0.0,0.0,0.0,0.0,0.0
1626894337941242023,82711,1626894337941242023,imu,0.384287770114,0.608231834369,-0.373545291153,0.585526140201,0.0,0.0,0.0,0.0,0.0,0.0,0.0,0.0,0.0,-0.78,-0.0311111111111,0.0555555555556,0.0,0.0,0.0,0.0,0.0,0.0,0.0,0.0,0.0,10.72,0.12,0.19,0.0,0.0,0.0,0.0,0.0,0.0,0.0,0.0,0.0
1626894337953851919,82712,1626894337953851919,imu,0.382264594114,0.609377248545,-0.371278225451,0.587099334311,0.0,0.0,0.0,0.0,0.0,0.0,0.0,0.0,0.0,-0.763333333333,-0.0322222222222,0.0555555555556,0.0,0.0,0.0,0.0,0.0,0.0,0.0,0.0,0.0,10.65,0.22,0.18,0.0,0.0,0.0,0.0,0.0,0.0,0.0,0.0,0.0
1626894337964339731,82713,1626894337964339731,imu,0.380245125893,0.610528410001,-0.368953737725,0.588678048032,0.0,0.0,0.0,0.0,0.0,0.0,0.0,0.0,0.0,-0.756666666667,-0.0333333333333,0.0511111111111,0.0,0.0,0.0,0.0,0.0,0.0,0.0,0.0,0.0,10.68,0.2,0.0,0.0,0.0,0.0,0.0,0.0,0.0,0.0,0.0,0.0
1626894337975030512,82714,1626894337975030512,imu,0.37817403522,0.611633635723,-0.366699419561,0.590271319337,0.0,0.0,0.0,0.0,0.0,0.0,0.0,0.0,0.0,-0.754444444444,-0.0411111111111,0.0511111111111,0.0,0.0,0.0,0.0,0.0,0.0,0.0,0.0,0.0,10.7,0.21,-0.01,0.0,0.0,0.0,0.0,0.0,0.0,0.0,0.0,0.0
1626894337981565825,82715,1626894337981565825,imu,0.376097960998,0.612730839088,-0.364440266978,0.591856852937,0.0,0.0,0.0,0.0,0.0,0.0,0.0,0.0,0.0,-0.764444444444,-0.05,0.0444444444444,0.0,0.0,0.0,0.0,0.0,0.0,0.0,0.0,0.0,10.63,0.18,0.07,0.0,0.0,0.0,0.0,0.0,0.0,0.0,0.0,0.0
1626894337991132231,82716,1626894337991132231,imu,0.373964487163,0.613833988477,-0.362184636335,0.59344813264,0.0,0.0,0.0,0.0,0.0,0.0,0.0,0.0,0.0,-0.758888888889,-0.0555555555556,0.0466666666667,0.0,0.0,0.0,0.0,0.0,0.0,0.0,0.0,0.0,10.69,0.21,0.2,0.0,0.0,0.0,0.0,0.0,0.0,0.0,0.0,0.0
1626894338004908273,82717,1626894338004908273,imu,0.371884385028,0.61486349824,-0.359982619875,0.595027222984,0.0,0.0,0.0,0.0,0.0,0.0,0.0,0.0,0.0,-0.75,-0.0611111111111,0.0411111111111,0.0,0.0,0.0,0.0,0.0,0.0,0.0,0.0,0.0,10.64,0.0,0.17,0.0,0.0,0.0,0.0,0.0,0.0,0.0,0.0,0.0
1626894338014572700,82718,1626894338014572700,imu,0.369818920863,0.6158562323,-0.357855806737,0.596568762587,0.0,0.0,0.0,0.0,0.0,0.0,0.0,0.0,0.0,-0.732222222222,-0.06,0.0411111111111,0.0,0.0,0.0,0.0,0.0,0.0,0.0,0.0,0.0,10.63,0.0,0.11,0.0,0.0,0.0,0.0,0.0,0.0,0.0,0.0,0.0
1626894338027284419,82719,1626894338027284419,imu,0.365844334736,0.617736154798,-0.353698351651,0.599547697716,0.0,0.0,0.0,0.0,0.0,0.0,0.0,0.0,0.0,-0.717777777778,-0.0611111111111,0.04,0.0,0.0,0.0,0.0,0.0,0.0,0.0,0.0,0.0,10.68,0.02,-0.07,0.0,0.0,0.0,0.0,0.0,0.0,0.0,0.0,0.0
1626894338033692179,82720,1626894338033692179,imu,0.365844334736,0.617736154798,-0.353698351651,0.599547697716,0.0,0.0,0.0,0.0,0.0,0.0,0.0,0.0,0.0,-0.702222222222,-0.0644444444444,0.04,0.0,0.0,0.0,0.0,0.0,0.0,0.0,0.0,0.0,10.68,0.02,-0.07,0.0,0.0,0.0,0.0,0.0,0.0,0.0,0.0,0.0
1626894338041171294,82721,1626894338041171294,imu,0.363830150307,0.618651636221,-0.351684168104,0.601012496238,0.0,0.0,0.0,0.0,0.0,0.0,0.0,0.0,0.0,-0.686666666667,-0.0711111111111,0.04,0.0,0.0,0.0,0.0,0.0,0.0,0.0,0.0,0.0,10.64,0.19,0.08,0.0,0.0,0.0,0.0,0.0,0.0,0.0,0.0,0.0
1626894338053925617,82722,1626894338053925617,imu,0.361878676945,0.619508951086,-0.349671604017,0.602480084352,0.0,0.0,0.0,0.0,0.0,0.0,0.0,0.0,0.0,-0.69,-0.0711111111111,0.0311111111111,0.0,0.0,0.0,0.0,0.0,0.0,0.0,0.0,0.0,10.66,0.2,0.07,0.0,0.0,0.0,0.0,0.0,0.0,0.0,0.0,0.0
1626894338064411189,82723,1626894338064411189,imu,0.359789804105,0.620461942074,-0.34764422802,0.603921986703,0.0,0.0,0.0,0.0,0.0,0.0,0.0,0.0,0.0,-0.706666666667,-0.0688888888889,0.0233333333333,0.0,0.0,0.0,0.0,0.0,0.0,0.0,0.0,0.0,10.63,0.19,0.02,0.0,0.0,0.0,0.0,0.0,0.0,0.0,0.0,0.0
1626894338075058064,82724,1626894338075058064,imu,0.357678092532,0.621419907862,-0.345592723535,0.60536711975,0.0,0.0,0.0,0.0,0.0,0.0,0.0,0.0,0.0,-0.716666666667,-0.0655555555556,0.0177777777778,0.0,0.0,0.0,0.0,0.0,0.0,0.0,0.0,0.0,10.66,0.19,0.02,0.0,0.0,0.0,0.0,0.0,0.0,0.0,0.0,0.0
1626894338082230721,82725,1626894338082230721,imu,0.355468437483,0.622435976212,-0.343505557376,0.606810989949,0.0,0.0,0.0,0.0,0.0,0.0,0.0,0.0,0.0,-0.736666666667,-0.0577777777778,0.01,0.0,0.0,0.0,0.0,0.0,0.0,0.0,0.0,0.0,10.65,0.04,-0.03,0.0,0.0,0.0,0.0,0.0,0.0,0.0,0.0,0.0
1626894338091151242,82726,1626894338091151242,imu,0.353154762033,0.623544598848,-0.341374798488,0.608224542631,0.0,0.0,0.0,0.0,0.0,0.0,0.0,0.0,0.0,-0.755555555556,-0.0533333333333,0.01,0.0,0.0,0.0,0.0,0.0,0.0,0.0,0.0,0.0,10.64,0.24,-0.06,0.0,0.0,0.0,0.0,0.0,0.0,0.0,0.0,0.0
1626894338104239887,82727,1626894338104239887,imu,0.350884139077,0.624621374033,-0.339165621995,0.609668057965,0.0,0.0,0.0,0.0,0.0,0.0,0.0,0.0,0.0,-0.765555555556,-0.0488888888889,0.00666666666667,0.0,0.0,0.0,0.0,0.0,0.0,0.0,0.0,0.0,10.59,0.08,0.07,0.0,0.0,0.0,0.0,0.0,0.0,0.0,0.0,0.0
1626894338114775721,82728,1626894338114775721,imu,0.348568431077,0.625726414885,-0.336971862717,0.611078118009,0.0,0.0,0.0,0.0,0.0,0.0,0.0,0.0,0.0,-0.773333333333,-0.04,0.00888888888889,0.0,0.0,0.0,0.0,0.0,0.0,0.0,0.0,0.0,10.61,0.14,0.05,0.0,0.0,0.0,0.0,0.0,0.0,0.0,0.0,0.0
1626894338124404054,82729,1626894338124404054,imu,0.346261884439,0.62690918651,-0.334664888485,0.612443459978,0.0,0.0,0.0,0.0,0.0,0.0,0.0,0.0,0.0,-0.78,-0.0277777777778,0.00777777777778,0.0,0.0,0.0,0.0,0.0,0.0,0.0,0.0,0.0,10.59,-0.02,0.15,0.0,0.0,0.0,0.0,0.0,0.0,0.0,0.0,0.0
1626894338131122439,82730,1626894338131122439,imu,0.34399101258,0.628107081345,-0.332333403743,0.613763950054,0.0,0.0,0.0,0.0,0.0,0.0,0.0,0.0,0.0,-0.786666666667,-0.0133333333333,0.0111111111111,0.0,0.0,0.0,0.0,0.0,0.0,0.0,0.0,0.0,10.6,0.04,0.15,0.0,0.0,0.0,0.0,0.0,0.0,0.0,0.0,0.0
1626894338141609783,82731,1626894338141609783,imu,0.341735310886,0.629332521977,-0.329955543964,0.615050317521,0.0,0.0,0.0,0.0,0.0,0.0,0.0,0.0,0.0,-0.782222222222,-0.00111111111111,0.0155555555556,0.0,0.0,0.0,0.0,0.0,0.0,0.0,0.0,0.0,10.64,0.08,-0.03,0.0,0.0,0.0,0.0,0.0,0.0,0.0,0.0,0.0
1626894338154028117,82732,1626894338154028117,imu,0.339481936977,0.630501332069,-0.327518891373,0.616402028322,0.0,0.0,0.0,0.0,0.0,0.0,0.0,0.0,0.0,-0.783333333333,0.00666666666667,0.0155555555556,0.0,0.0,0.0,0.0,0.0,0.0,0.0,0.0,0.0,10.61,0.0,-0.04,0.0,0.0,0.0,0.0,0.0,0.0,0.0,0.0,0.0
1626894338164380773,82733,1626894338164380773,imu,0.337283534016,0.631719974135,-0.325137420504,0.617620716741,0.0,0.0,0.0,0.0,0.0,0.0,0.0,0.0,0.0,-0.781111111111,0.0133333333333,0.0177777777778,0.0,0.0,0.0,0.0,0.0,0.0,0.0,0.0,0.0,10.6,-0.06,0.17,0.0,0.0,0.0,0.0,0.0,0.0,0.0,0.0,0.0
1626894338174785877,82734,1626894338174785877,imu,0.335087230829,0.632942547121,-0.322696937958,0.618843248337,0.0,0.0,0.0,0.0,0.0,0.0,0.0,0.0,0.0,-0.778888888889,0.0177777777778,0.0222222222222,0.0,0.0,0.0,0.0,0.0,0.0,0.0,0.0,0.0,10.58,-0.09,0.09,0.0,0.0,0.0,0.0,0.0,0.0,0.0,0.0,0.0
1626894338181123950,82735,1626894338181123950,imu,0.33287995233,0.634205277716,-0.320184860639,0.620045367753,0.0,0.0,0.0,0.0,0.0,0.0,0.0,0.0,0.0,-0.786666666667,0.0266666666667,0.0244444444444,0.0,0.0,0.0,0.0,0.0,0.0,0.0,0.0,0.0,10.62,-0.02,0.11,0.0,0.0,0.0,0.0,0.0,0.0,0.0,0.0,0.0
1626894338191132491,82736,1626894338191132491,imu,0.330693467145,0.635446601412,-0.317692782667,0.621225195386,0.0,0.0,0.0,0.0,0.0,0.0,0.0,0.0,0.0,-0.785555555556,0.0333333333333,0.0233333333333,0.0,0.0,0.0,0.0,0.0,0.0,0.0,0.0,0.0,10.64,0.14,0.15,0.0,0.0,0.0,0.0,0.0,0.0,0.0,0.0,0.0
1626894338204098481,82737,1626894338204098481,imu,0.328483179924,0.636703183383,-0.315238874825,0.622360272331,0.0,0.0,0.0,0.0,0.0,0.0,0.0,0.0,0.0,-0.786666666667,0.0388888888889,0.0166666666667,0.0,0.0,0.0,0.0,0.0,0.0,0.0,0.0,0.0,10.62,0.07,0.07,0.0,0.0,0.0,0.0,0.0,0.0,0.0,0.0,0.0
1626894338214407023,82738,1626894338214407023,imu,0.326232679855,0.63800003789,-0.312743919846,0.623473680957,0.0,0.0,0.0,0.0,0.0,0.0,0.0,0.0,0.0,-0.786666666667,0.0411111111111,0.0122222222222,0.0,0.0,0.0,0.0,0.0,0.0,0.0,0.0,0.0,10.56,0.02,0.04,0.0,0.0,0.0,0.0,0.0,0.0,0.0,0.0,0.0
1626894338224571033,82739,1626894338224571033,imu,0.323977468558,0.639287868439,-0.310244437204,0.624578265967,0.0,0.0,0.0,0.0,0.0,0.0,0.0,0.0,0.0,-0.79,0.0433333333333,0.00444444444444,0.0,0.0,0.0,0.0,0.0,0.0,0.0,0.0,0.0,10.59,-0.02,-0.01,0.0,0.0,0.0,0.0,0.0,0.0,0.0,0.0,0.0
1626894338231315356,82740,1626894338231315356,imu,0.321656879716,0.640567163685,-0.307801830058,0.62567451119,0.0,0.0,0.0,0.0,0.0,0.0,0.0,0.0,0.0,-0.8,0.0377777777778,0.00111111111111,0.0,0.0,0.0,0.0,0.0,0.0,0.0,0.0,0.0,10.6,0.14,-0.02,0.0,0.0,0.0,0.0,0.0,0.0,0.0,0.0,0.0
1626894338241128846,82741,1626894338241128846,imu,0.319276649574,0.641849215623,-0.305238486814,0.626834485018,0.0,0.0,0.0,0.0,0.0,0.0,0.0,0.0,0.0,-0.808888888889,0.0288888888889,-0.00222222222222,0.0,0.0,0.0,0.0,0.0,0.0,0.0,0.0,0.0,10.59,0.22,0.1,0.0,0.0,0.0,0.0,0.0,0.0,0.0,0.0,0.0
1626894338253829106,82742,1626894338253829106,imu,0.316830831607,0.643122032874,-0.302731829084,0.62798544142,0.0,0.0,0.0,0.0,0.0,0.0,0.0,0.0,0.0,-0.818888888889,0.0255555555556,-0.0111111111111,0.0,0.0,0.0,0.0,0.0,0.0,0.0,0.0,0.0,10.56,0.11,0.18,0.0,0.0,0.0,0.0,0.0,0.0,0.0,0.0,0.0
1626894338264371606,82743,1626894338264371606,imu,0.31432529775,0.644397377406,-0.30022643488,0.629138867807,0.0,0.0,0.0,0.0,0.0,0.0,0.0,0.0,0.0,-0.826666666667,0.02,-0.0144444444444,0.0,0.0,0.0,0.0,0.0,0.0,0.0,0.0,0.0,10.56,0.04,0.14,0.0,0.0,0.0,0.0,0.0,0.0,0.0,0.0,0.0
1626894338276223950,82744,1626894338276223950,imu,0.311833593403,0.645640193975,-0.297795283268,0.630259088957,0.0,0.0,0.0,0.0,0.0,0.0,0.0,0.0,0.0,-0.818888888889,0.0144444444444,-0.0211111111111,0.0,0.0,0.0,0.0,0.0,0.0,0.0,0.0,0.0,10.53,0.09,0.07,0.0,0.0,0.0,0.0,0.0,0.0,0.0,0.0,0.0
1626894338283835460,82745,1626894338283835460,imu,0.309387011673,0.646789142375,-0.295409969717,0.631408292712,0.0,0.0,0.0,0.0,0.0,0.0,0.0,0.0,0.0,-0.798888888889,0.00888888888889,-0.0211111111111,0.0,0.0,0.0,0.0,0.0,0.0,0.0,0.0,0.0,10.53,0.09,0.07,0.0,0.0,0.0,0.0,0.0,0.0,0.0,0.0,0.0
1626894338291152908,82746,1626894338291152908,imu,0.307065181208,0.647882508155,-0.293088252865,0.632501783515,0.0,0.0,0.0,0.0,0.0,0.0,0.0,0.0,0.0,-0.761111111111,-0.00333333333333,-0.0177777777778,0.0,0.0,0.0,0.0,0.0,0.0,0.0,0.0,0.0,10.56,0.05,0.01,0.0,0.0,0.0,0.0,0.0,0.0,0.0,0.0,0.0
1626894338304135356,82747,1626894338304135356,imu,0.304802649083,0.648850012495,-0.290947983215,0.63359156991,0.0,0.0,0.0,0.0,0.0,0.0,0.0,0.0,0.0,-0.718888888889,-0.0155555555556,-0.0144444444444,0.0,0.0,0.0,0.0,0.0,0.0,0.0,0.0,0.0,10.54,0.12,0.24,0.0,0.0,0.0,0.0,0.0,0.0,0.0,0.0,0.0
1626894338314190825,82748,1626894338314190825,imu,0.302739712893,0.649730694303,-0.288945524362,0.634593708659,0.0,0.0,0.0,0.0,0.0,0.0,0.0,0.0,0.0,-0.671111111111,-0.0188888888889,-0.0122222222222,0.0,0.0,0.0,0.0,0.0,0.0,0.0,0.0,0.0,10.59,0.28,0.02,0.0,0.0,0.0,0.0,0.0,0.0,0.0,0.0,0.0
1626894338324703585,82749,1626894338324703585,imu,0.300718572541,0.650570177535,-0.287046772207,0.635555611096,0.0,0.0,0.0,0.0,0.0,0.0,0.0,0.0,0.0,-0.637777777778,-0.0277777777778,-0.0144444444444,0.0,0.0,0.0,0.0,0.0,0.0,0.0,0.0,0.0,10.53,0.0,-0.05,0.0,0.0,0.0,0.0,0.0,0.0,0.0,0.0,0.0
1626894338331168481,82750,1626894338331168481,imu,0.298824735855,0.651237731121,-0.285214050378,0.636589459756,0.0,0.0,0.0,0.0,0.0,0.0,0.0,0.0,0.0,-0.612222222222,-0.0388888888889,-0.01,0.0,0.0,0.0,0.0,0.0,0.0,0.0,0.0,0.0,10.54,0.0,0.08,0.0,0.0,0.0,0.0,0.0,0.0,0.0,0.0,0.0
1626894338341170721,82751,1626894338341170721,imu,0.296934828329,0.651913854344,-0.28344611362,0.63757065092,0.0,0.0,0.0,0.0,0.0,0.0,0.0,0.0,0.0,-0.591111111111,-0.0488888888889,0.00333333333333,0.0,0.0,0.0,0.0,0.0,0.0,0.0,0.0,0.0,10.5,-0.01,0.2,0.0,0.0,0.0,0.0,0.0,0.0,0.0,0.0,0.0
1626894338354019419,82752,1626894338354019419,imu,0.295228088454,0.652468113619,-0.281739271512,0.638552049081,0.0,0.0,0.0,0.0,0.0,0.0,0.0,0.0,0.0,-0.566666666667,-0.0544444444444,0.0122222222222,0.0,0.0,0.0,0.0,0.0,0.0,0.0,0.0,0.0,10.56,-0.01,0.0,0.0,0.0,0.0,0.0,0.0,0.0,0.0,0.0,0.0
1626894338364400929,82753,1626894338364400929,imu,0.29357501516,0.653006047234,-0.280025399075,0.639517465456,0.0,0.0,0.0,0.0,0.0,0.0,0.0,0.0,0.0,-0.543333333333,-0.0577777777778,0.0233333333333,0.0,0.0,0.0,0.0,0.0,0.0,0.0,0.0,0.0,10.5,-0.05,0.15,0.0,0.0,0.0,0.0,0.0,0.0,0.0,0.0,0.0
1626894338374695669,82754,1626894338374695669,imu,0.291989187516,0.65343566922,-0.278439522042,0.640496349037,0.0,0.0,0.0,0.0,0.0,0.0,0.0,0.0,0.0,-0.521111111111,-0.0644444444444,0.03,0.0,0.0,0.0,0.0,0.0,0.0,0.0,0.0,0.0,10.5,0.03,0.21,0.0,0.0,0.0,0.0,0.0,0.0,0.0,0.0,0.0
1626894338381350721,82755,1626894338381350721,imu,0.29046881308,0.653875266764,-0.27685785588,0.641423987531,0.0,0.0,0.0,0.0,0.0,0.0,0.0,0.0,0.0,-0.494444444444,-0.0666666666667,0.0377777777778,0.0,0.0,0.0,0.0,0.0,0.0,0.0,0.0,0.0,10.48,-0.09,0.22,0.0,0.0,0.0,0.0,0.0,0.0,0.0,0.0,0.0
1626894338391157752,82756,1626894338391157752,imu,0.28912118125,0.654230513368,-0.275327348242,0.642328754798,0.0,0.0,0.0,0.0,0.0,0.0,0.0,0.0,0.0,-0.473333333333,-0.0666666666667,0.0477777777778,0.0,0.0,0.0,0.0,0.0,0.0,0.0,0.0,0.0,10.53,0.04,0.0,0.0,0.0,0.0,0.0,0.0,0.0,0.0,0.0,0.0
1626894338404403689,82757,1626894338404403689,imu,0.287779010513,0.654475997823,-0.27386307957,0.643306632198,0.0,0.0,0.0,0.0,0.0,0.0,0.0,0.0,0.0,-0.45,-0.0811111111111,0.0555555555556,0.0,0.0,0.0,0.0,0.0,0.0,0.0,0.0,0.0,10.49,0.04,-0.1,0.0,0.0,0.0,0.0,0.0,0.0,0.0,0.0,0.0
1626894338414405773,82758,1626894338414405773,imu,0.286565414489,0.654675321791,-0.272466029878,0.644238115001,0.0,0.0,0.0,0.0,0.0,0.0,0.0,0.0,0.0,-0.43,-0.0833333333333,0.0633333333333,0.0,0.0,0.0,0.0,0.0,0.0,0.0,0.0,0.0,10.51,0.18,-0.39,0.0,0.0,0.0,0.0,0.0,0.0,0.0,0.0,0.0
1626894338424960981,82759,1626894338424960981,imu,0.28541327322,0.654814712383,-0.271130401977,0.645170722398,0.0,0.0,0.0,0.0,0.0,0.0,0.0,0.0,0.0,-0.402222222222,-0.0977777777778,0.0655555555556,0.0,0.0,0.0,0.0,0.0,0.0,0.0,0.0,0.0,10.52,0.21,-0.08,0.0,0.0,0.0,0.0,0.0,0.0,0.0,0.0,0.0
1626894338431330148,82760,1626894338431330148,imu,0.284362927504,0.654846501222,-0.269897588629,0.646118469749,0.0,0.0,0.0,0.0,0.0,0.0,0.0,0.0,0.0,-0.378888888889,-0.106666666667,0.0688888888889,0.0,0.0,0.0,0.0,0.0,0.0,0.0,0.0,0.0,10.51,0.11,-0.11,0.0,0.0,0.0,0.0,0.0,0.0,0.0,0.0,0.0
1626894338442574366,82761,1626894338442574366,imu,0.283318219978,0.654891103052,-0.268731176769,0.647017761738,0.0,0.0,0.0,0.0,0.0,0.0,0.0,0.0,0.0,-0.355555555556,-0.106666666667,0.0711111111111,0.0,0.0,0.0,0.0,0.0,0.0,0.0,0.0,0.0,10.46,-0.05,0.0,0.0,0.0,0.0,0.0,0.0,0.0,0.0,0.0,0.0
1626894338454055616,82762,1626894338454055616,imu,0.282407430268,0.654902037341,-0.267576004818,0.647883049988,0.0,0.0,0.0,0.0,0.0,0.0,0.0,0.0,0.0,-0.332222222222,-0.108888888889,0.08,0.0,0.0,0.0,0.0,0.0,0.0,0.0,0.0,0.0,10.47,-0.21,-0.02,0.0,0.0,0.0,0.0,0.0,0.0,0.0,0.0,0.0
1626894338464292648,82763,1626894338464292648,imu,0.281614858655,0.654843046924,-0.266478212589,0.648739560607,0.0,0.0,0.0,0.0,0.0,0.0,0.0,0.0,0.0,-0.305555555556,-0.102222222222,0.09,0.0,0.0,0.0,0.0,0.0,0.0,0.0,0.0,0.0,10.44,-0.27,-0.06,0.0,0.0,0.0,0.0,0.0,0.0,0.0,0.0,0.0
1626894338475054679,82764,1626894338475054679,imu,0.280956363706,0.654751013138,-0.26539175959,0.649562811766,0.0,0.0,0.0,0.0,0.0,0.0,0.0,0.0,0.0,-0.283333333333,-0.0955555555556,0.106666666667,0.0,0.0,0.0,0.0,0.0,0.0,0.0,0.0,0.0,10.49,-0.23,0.05,0.0,0.0,0.0,0.0,0.0,0.0,0.0,0.0,0.0
1626894338481687752,82765,1626894338481687752,imu,0.280398442535,0.654669937882,-0.264284992637,0.650336396432,0.0,0.0,0.0,0.0,0.0,0.0,0.0,0.0,0.0,-0.266666666667,-0.0822222222222,0.117777777778,0.0,0.0,0.0,0.0,0.0,0.0,0.0,0.0,0.0,10.48,-0.13,0.09,0.0,0.0,0.0,0.0,0.0,0.0,0.0,0.0,0.0
1626894338491789991,82766,1626894338491789991,imu,0.279907331879,0.654602297078,-0.263183692774,0.651062256684,0.0,0.0,0.0,0.0,0.0,0.0,0.0,0.0,0.0,-0.262222222222,-0.0633333333333,0.125555555556,0.0,0.0,0.0,0.0,0.0,0.0,0.0,0.0,0.0,10.56,-0.07,-0.06,0.0,0.0,0.0,0.0,0.0,0.0,0.0,0.0,0.0
1626894338504369835,82767,1626894338504369835,imu,0.279426743146,0.654620318969,-0.262092275026,0.651690549709,0.0,0.0,0.0,0.0,0.0,0.0,0.0,0.0,0.0,-0.258888888889,-0.0511111111111,0.128888888889,0.0,0.0,0.0,0.0,0.0,0.0,0.0,0.0,0.0,10.46,-0.06,-0.05,0.0,0.0,0.0,0.0,0.0,0.0,0.0,0.0,0.0
1626894338514323429,82768,1626894338514323429,imu,0.278984096867,0.654645246771,-0.260918182915,0.652325974034,0.0,0.0,0.0,0.0,0.0,0.0,0.0,0.0,0.0,-0.251111111111,-0.0422222222222,0.126666666667,0.0,0.0,0.0,0.0,0.0,0.0,0.0,0.0,0.0,10.49,-0.07,-0.18,0.0,0.0,0.0,0.0,0.0,0.0,0.0,0.0,0.0
1626894338524491346,82769,1626894338524491346,imu,0.278569862987,0.654675799825,-0.259831706121,0.652905745919,0.0,0.0,0.0,0.0,0.0,0.0,0.0,0.0,0.0,-0.254444444444,-0.0333333333333,0.117777777778,0.0,0.0,0.0,0.0,0.0,0.0,0.0,0.0,0.0,10.47,-0.14,-0.07,0.0,0.0,0.0,0.0,0.0,0.0,0.0,0.0,0.0
1626894338531369002,82770,1626894338531369002,imu,0.278069875283,0.654770329683,-0.258661135085,0.653488620424,0.0,0.0,0.0,0.0,0.0,0.0,0.0,0.0,0.0,-0.258888888889,-0.0233333333333,0.117777777778,0.0,0.0,0.0,0.0,0.0,0.0,0.0,0.0,0.0,10.49,-0.15,0.0,0.0,0.0,0.0,0.0,0.0,0.0,0.0,0.0,0.0
1626894338541148637,82771,1626894338541148637,imu,0.277591544156,0.654915846262,-0.257510713456,0.654000306868,0.0,0.0,0.0,0.0,0.0,0.0,0.0,0.0,0.0,-0.262222222222,-0.0133333333333,0.117777777778,0.0,0.0,0.0,0.0,0.0,0.0,0.0,0.0,0.0,10.48,-0.11,-0.07,0.0,0.0,0.0,0.0,0.0,0.0,0.0,0.0,0.0
1626894338553978273,82772,1626894338553978273,imu,0.277105925575,0.655105264139,-0.256292462883,0.654494898664,0.0,0.0,0.0,0.0,0.0,0.0,0.0,0.0,0.0,-0.272222222222,-0.00444444444444,0.114444444444,0.0,0.0,0.0,0.0,0.0,0.0,0.0,0.0,0.0,10.49,-0.03,-0.07,0.0,0.0,0.0,0.0,0.0,0.0,0.0,0.0,0.0
1626894338564269002,82773,1626894338564269002,imu,0.276604378982,0.655256975451,-0.255120543721,0.65501284096,0.0,0.0,0.0,0.0,0.0,0.0,0.0,0.0,0.0,-0.275555555556,0.00444444444444,0.106666666667,0.0,0.0,0.0,0.0,0.0,0.0,0.0,0.0,0.0,10.49,-0.19,-0.14,0.0,0.0,0.0,0.0,0.0,0.0,0.0,0.0,0.0
1626894338576709731,82774,1626894338576709731,imu,0.276065572661,0.65552603369,-0.25384848921,0.655464997747,0.0,0.0,0.0,0.0,0.0,0.0,0.0,0.0,0.0,-0.29,0.0166666666667,0.102222222222,0.0,0.0,0.0,0.0,0.0,0.0,0.0,0.0,0.0,10.51,-0.27,0.0,0.0,0.0,0.0,0.0,0.0,0.0,0.0,0.0,0.0
1626894338583595512,82775,1626894338583595512,imu,0.275458690493,0.655839492432,-0.252569922725,0.655900529146,0.0,0.0,0.0,0.0,0.0,0.0,0.0,0.0,0.0,-0.301111111111,0.0244444444444,0.101111111111,0.0,0.0,0.0,0.0,0.0,0.0,0.0,0.0,0.0,10.51,-0.27,0.0,0.0,0.0,0.0,0.0,0.0,0.0,0.0,0.0,0.0
1626894338591140668,82776,1626894338591140668,imu,0.274844370509,0.656196275226,-0.251223501891,0.656318346899,0.0,0.0,0.0,0.0,0.0,0.0,0.0,0.0,0.0,-0.31,0.0344444444444,0.1,0.0,0.0,0.0,0.0,0.0,0.0,0.0,0.0,0.0,10.49,-0.18,-0.05,0.0,0.0,0.0,0.0,0.0,0.0,0.0,0.0,0.0
1626894338604233429,82777,1626894338604233429,imu,0.274161951509,0.656597122515,-0.249870665512,0.656719189279,0.0,0.0,0.0,0.0,0.0,0.0,0.0,0.0,0.0,-0.318888888889,0.0433333333333,0.0955555555556,0.0,0.0,0.0,0.0,0.0,0.0,0.0,0.0,0.0,10.47,-0.13,-0.06,0.0,0.0,0.0,0.0,0.0,0.0,0.0,0.0,0.0
1626894338614661658,82778,1626894338614661658,imu,0.273500807755,0.657048916644,-0.248537221419,0.657048916644,0.0,0.0,0.0,0.0,0.0,0.0,0.0,0.0,0.0,-0.325555555556,0.0533333333333,0.0888888888889,0.0,0.0,0.0,0.0,0.0,0.0,0.0,0.0,0.0,10.47,-0.17,-0.11,0.0,0.0,0.0,0.0,0.0,0.0,0.0,0.0,0.0
1626894338624469106,82779,1626894338624469106,imu,0.272775598869,0.657493567021,-0.247139941781,0.657432529742,0.0,0.0,0.0,0.0,0.0,0.0,0.0,0.0,0.0,-0.335555555556,0.0566666666667,0.0766666666667,0.0,0.0,0.0,0.0,0.0,0.0,0.0,0.0,0.0,10.44,-0.14,-0.08,0.0,0.0,0.0,0.0,0.0,0.0,0.0,0.0,0.0
1626894338631071189,82780,1626894338631071189,imu,0.272034577633,0.657961127862,-0.245789374944,0.657778021797,0.0,0.0,0.0,0.0,0.0,0.0,0.0,0.0,0.0,-0.336666666667,0.0566666666667,0.0688888888889,0.0,0.0,0.0,0.0,0.0,0.0,0.0,0.0,0.0,10.52,-0.14,-0.04,0.0,0.0,0.0,0.0,0.0,0.0,0.0,0.0,0.0
1626894338641139679,82781,1626894338641139679,imu,0.271179773531,0.658509695393,-0.244446318477,0.658082448394,0.0,0.0,0.0,0.0,0.0,0.0,0.0,0.0,0.0,-0.341111111111,0.0622222222222,0.06,0.0,0.0,0.0,0.0,0.0,0.0,0.0,0.0,0.0,10.46,-0.2,-0.05,0.0,0.0,0.0,0.0,0.0,0.0,0.0,0.0,0.0
1626894338653990564,82782,1626894338653990564,imu,0.270324179848,0.659056331904,-0.243102553248,0.658384946495,0.0,0.0,0.0,0.0,0.0,0.0,0.0,0.0,0.0,-0.354444444444,0.0622222222222,0.0488888888889,0.0,0.0,0.0,0.0,0.0,0.0,0.0,0.0,0.0,10.45,-0.2,-0.06,0.0,0.0,0.0,0.0,0.0,0.0,0.0,0.0,0.0
1626894338664375616,82783,1626894338664375616,imu,0.269354593113,0.659622725532,-0.241766041994,0.658707176269,0.0,0.0,0.0,0.0,0.0,0.0,0.0,0.0,0.0,-0.367777777778,0.0633333333333,0.04,0.0,0.0,0.0,0.0,0.0,0.0,0.0,0.0,0.0,10.46,-0.22,-0.07,0.0,0.0,0.0,0.0,0.0,0.0,0.0,0.0,0.0
1626894338675273481,82784,1626894338675273481,imu,0.268309798726,0.660215444227,-0.24035577511,0.659055779492,0.0,0.0,0.0,0.0,0.0,0.0,0.0,0.0,0.0,-0.388888888889,0.0644444444444,0.0333333333333,0.0,0.0,0.0,0.0,0.0,0.0,0.0,0.0,0.0,10.47,-0.2,-0.11,0.0,0.0,0.0,0.0,0.0,0.0,0.0,0.0,0.0
1626894338681219575,82785,1626894338681219575,imu,0.267218190047,0.660843157525,-0.23895824898,0.65937827937,0.0,0.0,0.0,0.0,0.0,0.0,0.0,0.0,0.0,-0.398888888889,0.0644444444444,0.0222222222222,0.0,0.0,0.0,0.0,0.0,0.0,0.0,0.0,0.0,10.44,-0.24,-0.14,0.0,0.0,0.0,0.0,0.0,0.0,0.0,0.0,0.0
1626894338691125356,82786,1626894338691125356,imu,0.266051239615,0.66149652098,-0.23748689455,0.659726508144,0.0,0.0,0.0,0.0,0.0,0.0,0.0,0.0,0.0,-0.418888888889,0.0588888888889,0.0188888888889,0.0,0.0,0.0,0.0,0.0,0.0,0.0,0.0,0.0,10.45,-0.18,-0.14,0.0,0.0,0.0,0.0,0.0,0.0,0.0,0.0,0.0
1626894338704157908,82787,1626894338704157908,imu,0.264776652475,0.662124740906,-0.236089463295,0.660110534006,0.0,0.0,0.0,0.0,0.0,0.0,0.0,0.0,0.0,-0.42,0.0555555555556,0.00555555555556,0.0,0.0,0.0,0.0,0.0,0.0,0.0,0.0,0.0,10.44,-0.14,-0.12,0.0,0.0,0.0,0.0,0.0,0.0,0.0,0.0,0.0
1626894338714351554,82788,1626894338714351554,imu,0.263486477099,0.662774995326,-0.234739168618,0.660455679567,0.0,0.0,0.0,0.0,0.0,0.0,0.0,0.0,0.0,-0.42,0.05,-0.00444444444444,0.0,0.0,0.0,0.0,0.0,0.0,0.0,0.0,0.0,10.47,-0.18,-0.01,0.0,0.0,0.0,0.0,0.0,0.0,0.0,0.0,0.0
1626894338724526554,82789,1626894338724526554,imu,0.262209678899,0.663397811908,-0.23333975848,0.66083430946,0.0,0.0,0.0,0.0,0.0,0.0,0.0,0.0,0.0,-0.427777777778,0.0422222222222,-0.0122222222222,0.0,0.0,0.0,0.0,0.0,0.0,0.0,0.0,0.0,10.41,-0.32,0.0,0.0,0.0,0.0,0.0,0.0,0.0,0.0,0.0,0.0
1626894338731137179,82790,1626894338731137179,imu,0.260803726416,0.664063782682,-0.23199507702,0.661195124798,0.0,0.0,0.0,0.0,0.0,0.0,0.0,0.0,0.0,-0.433333333333,0.0477777777778,-0.0244444444444,0.0,0.0,0.0,0.0,0.0,0.0,0.0,0.0,0.0,10.44,-0.19,-0.17,0.0,0.0,0.0,0.0,0.0,0.0,0.0,0.0,0.0
1626894338741138898,82791,1626894338741138898,imu,0.259339737269,0.664737368461,-0.230653063577,0.661563523713,0.0,0.0,0.0,0.0,0.0,0.0,0.0,0.0,0.0,-0.437777777778,0.0422222222222,-0.0288888888889,0.0,0.0,0.0,0.0,0.0,0.0,0.0,0.0,0.0,10.43,-0.29,-0.17,0.0,0.0,0.0,0.0,0.0,0.0,0.0,0.0,0.0
1626894338754189679,82792,1626894338754189679,imu,0.257874623104,0.665347045314,-0.229310049467,0.661990097558,0.0,0.0,0.0,0.0,0.0,0.0,0.0,0.0,0.0,-0.447777777778,0.0366666666667,-0.0377777777778,0.0,0.0,0.0,0.0,0.0,0.0,0.0,0.0,0.0,10.38,-0.33,-0.18,0.0,0.0,0.0,0.0,0.0,0.0,0.0,0.0,0.0
1626894338764213689,82793,1626894338764213689,imu,0.256294250778,0.666035452368,-0.227973095179,0.662373233971,0.0,0.0,0.0,0.0,0.0,0.0,0.0,0.0,0.0,-0.461111111111,0.0344444444444,-0.0455555555556,0.0,0.0,0.0,0.0,0.0,0.0,0.0,0.0,0.0,10.39,-0.29,-0.08,0.0,0.0,0.0,0.0,0.0,0.0,0.0,0.0,0.0
1626894338774401658,82794,1626894338774401658,imu,0.254705766953,0.666702873813,-0.226567890469,0.662796530874,0.0,0.0,0.0,0.0,0.0,0.0,0.0,0.0,0.0,-0.468888888889,0.03,-0.05,0.0,0.0,0.0,0.0,0.0,0.0,0.0,0.0,0.0,10.43,-0.26,-0.05,0.0,0.0,0.0,0.0,0.0,0.0,0.0,0.0,0.0
1626894338781192960,82795,1626894338781192960,imu,0.25305192137,0.667358829777,-0.225280907326,0.663208436469,0.0,0.0,0.0,0.0,0.0,0.0,0.0,0.0,0.0,-0.47,0.0277777777778,-0.0577777777778,0.0,0.0,0.0,0.0,0.0,0.0,0.0,0.0,0.0,10.45,-0.23,-0.11,0.0,0.0,0.0,0.0,0.0,0.0,0.0,0.0,0.0
1626894338791126866,82796,1626894338791126866,imu,0.251400334057,0.668020552624,-0.223934893337,0.663626082108,0.0,0.0,0.0,0.0,0.0,0.0,0.0,0.0,0.0,-0.473333333333,0.0255555555556,-0.0677777777778,0.0,0.0,0.0,0.0,0.0,0.0,0.0,0.0,0.0,10.4,-0.21,-0.02,0.0,0.0,0.0,0.0,0.0,0.0,0.0,0.0,0.0
1626894338804349991,82797,1626894338804349991,imu,0.249633050214,0.6686991927,-0.222594556022,0.664060534554,0.0,0.0,0.0,0.0,0.0,0.0,0.0,0.0,0.0,-0.48,0.0244444444444,-0.0755555555556,0.0,0.0,0.0,0.0,0.0,0.0,0.0,0.0,0.0,10.41,-0.28,-0.01,0.0,0.0,0.0,0.0,0.0,0.0,0.0,0.0,0.0
1626894338814302960,82798,1626894338814302960,imu,0.247860925156,0.669425911625,-0.221310936867,0.664421086246,0.0,0.0,0.0,0.0,0.0,0.0,0.0,0.0,0.0,-0.484444444444,0.0288888888889,-0.0855555555556,0.0,0.0,0.0,0.0,0.0,0.0,0.0,0.0,0.0,10.44,-0.18,-0.09,0.0,0.0,0.0,0.0,0.0,0.0,0.0,0.0,0.0
1626894338824520512,82799,1626894338824520512,imu,0.246087569823,0.670088152056,-0.220026212603,0.664839260438,0.0,0.0,0.0,0.0,0.0,0.0,0.0,0.0,0.0,-0.488888888889,0.0244444444444,-0.0911111111111,0.0,0.0,0.0,0.0,0.0,0.0,0.0,0.0,0.0,10.44,-0.17,-0.07,0.0,0.0,0.0,0.0,0.0,0.0,0.0,0.0,0.0
1626894338831393741,82800,1626894338831393741,imu,0.244201334476,0.670836507681,-0.218688673189,0.665221280794,0.0,0.0,0.0,0.0,0.0,0.0,0.0,0.0,0.0,-0.498888888889,0.0211111111111,-0.0988888888889,0.0,0.0,0.0,0.0,0.0,0.0,0.0,0.0,0.0,10.45,-0.19,-0.09,0.0,0.0,0.0,0.0,0.0,0.0,0.0,0.0,0.0
1626894338841641606,82801,1626894338841641606,imu,0.242310415219,0.67151113054,-0.217407984638,0.665651735109,0.0,0.0,0.0,0.0,0.0,0.0,0.0,0.0,0.0,-0.502222222222,0.0222222222222,-0.106666666667,0.0,0.0,0.0,0.0,0.0,0.0,0.0,0.0,0.0,10.39,-0.16,-0.01,0.0,0.0,0.0,0.0,0.0,0.0,0.0,0.0,0.0
1626894338853810304,82802,1626894338853810304,imu,0.240357299526,0.672243600046,-0.216187291753,0.666017991983,0.0,0.0,0.0,0.0,0.0,0.0,0.0,0.0,0.0,-0.498888888889,0.0177777777778,-0.114444444444,0.0,0.0,0.0,0.0,0.0,0.0,0.0,0.0,0.0,10.38,-0.18,-0.01,0.0,0.0,0.0,0.0,0.0,0.0,0.0,0.0,0.0
1626894338864449887,82803,1626894338864449887,imu,0.23840285405,0.672911281593,-0.214965399888,0.666441567684,0.0,0.0,0.0,0.0,0.0,0.0,0.0,0.0,0.0,-0.5,0.0177777777778,-0.121111111111,0.0,0.0,0.0,0.0,0.0,0.0,0.0,0.0,0.0,10.35,-0.16,-0.04,0.0,0.0,0.0,0.0,0.0,0.0,0.0,0.0,0.0
1626894338875145825,82804,1626894338875145825,imu,0.236446928324,0.673635711902,-0.213742163911,0.666799868853,0.0,0.0,0.0,0.0,0.0,0.0,0.0,0.0,0.0,-0.497777777778,0.0155555555556,-0.123333333333,0.0,0.0,0.0,0.0,0.0,0.0,0.0,0.0,0.0,10.39,-0.14,-0.03,0.0,0.0,0.0,0.0,0.0,0.0,0.0,0.0,0.0
1626894338881740408,82805,1626894338881740408,imu,0.234441618633,0.674332466195,-0.212529475678,0.667191182837,0.0,0.0,0.0,0.0,0.0,0.0,0.0,0.0,0.0,-0.502222222222,0.0155555555556,-0.13,0.0,0.0,0.0,0.0,0.0,0.0,0.0,0.0,0.0,10.38,-0.15,-0.07,0.0,0.0,0.0,0.0,0.0,0.0,0.0,0.0,0.0
1626894338891137491,82806,1626894338891137491,imu,0.232425156166,0.675058357983,-0.211306693973,0.667550927781,0.0,0.0,0.0,0.0,0.0,0.0,0.0,0.0,0.0,-0.5,0.0155555555556,-0.136666666667,0.0,0.0,0.0,0.0,0.0,0.0,0.0,0.0,0.0,10.37,-0.19,0.03,0.0,0.0,0.0,0.0,0.0,0.0,0.0,0.0,0.0
1626894338904238429,82807,1626894338904238429,imu,0.230526479314,0.675710524883,-0.210202063743,0.667898136916,0.0,0.0,0.0,0.0,0.0,0.0,0.0,0.0,0.0,-0.48,0.0166666666667,-0.132222222222,0.0,0.0,0.0,0.0,0.0,0.0,0.0,0.0,0.0,10.37,-0.14,-0.09,0.0,0.0,0.0,0.0,0.0,0.0,0.0,0.0,0.0
1626894338914176710,82808,1626894338914176710,imu,0.228636007179,0.676386607463,-0.209104901387,0.668207956913,0.0,0.0,0.0,0.0,0.0,0.0,0.0,0.0,0.0,-0.463333333333,0.0177777777778,-0.135555555556,0.0,0.0,0.0,0.0,0.0,0.0,0.0,0.0,0.0,10.38,-0.08,-0.02,0.0,0.0,0.0,0.0,0.0,0.0,0.0,0.0,0.0
1626894338924468897,82809,1626894338924468897,imu,0.226808687895,0.677008064084,-0.20807072579,0.668524100785,0.0,0.0,0.0,0.0,0.0,0.0,0.0,0.0,0.0,-0.445555555556,0.0133333333333,-0.136666666667,0.0,0.0,0.0,0.0,0.0,0.0,0.0,0.0,0.0,10.37,-0.14,0.03,0.0,0.0,0.0,0.0,0.0,0.0,0.0,0.0,0.0
1626894338931171137,82810,1626894338931171137,imu,0.224974519883,0.677609093797,-0.207152338709,0.668820072945,0.0,0.0,0.0,0.0,0.0,0.0,0.0,0.0,0.0,-0.425555555556,0.01,-0.135555555556,0.0,0.0,0.0,0.0,0.0,0.0,0.0,0.0,0.0,10.37,-0.09,-0.05,0.0,0.0,0.0,0.0,0.0,0.0,0.0,0.0,0.0
1626894338941182700,82811,1626894338941182700,imu,0.223264589212,0.678155508675,-0.206235934103,0.669122386968,0.0,0.0,0.0,0.0,0.0,0.0,0.0,0.0,0.0,-0.407777777778,0.0111111111111,-0.133333333333,0.0,0.0,0.0,0.0,0.0,0.0,0.0,0.0,0.0,10.36,-0.12,0.04,0.0,0.0,0.0,0.0,0.0,0.0,0.0,0.0,0.0
1626894338953887127,82812,1626894338953887127,imu,0.221615288126,0.678700634524,-0.205441217249,0.669362397376,0.0,0.0,0.0,0.0,0.0,0.0,0.0,0.0,0.0,-0.388888888889,0.00888888888889,-0.131111111111,0.0,0.0,0.0,0.0,0.0,0.0,0.0,0.0,0.0,10.35,-0.07,0.02,0.0,0.0,0.0,0.0,0.0,0.0,0.0,0.0,0.0
1626894338964402700,82813,1626894338964402700,imu,0.220035140861,0.679209721913,-0.204593007535,0.669627054197,0.0,0.0,0.0,0.0,0.0,0.0,0.0,0.0,0.0,-0.37,0.0111111111111,-0.126666666667,0.0,0.0,0.0,0.0,0.0,0.0,0.0,0.0,0.0,10.33,-0.11,-0.06,0.0,0.0,0.0,0.0,0.0,0.0,0.0,0.0,0.0
1626894338974449158,82814,1626894338974449158,imu,0.218506809724,0.679690456168,-0.203858308513,0.669863753273,0.0,0.0,0.0,0.0,0.0,0.0,0.0,0.0,0.0,-0.347777777778,0.00777777777778,-0.123333333333,0.0,0.0,0.0,0.0,0.0,0.0,0.0,0.0,0.0,10.36,-0.02,-0.01,0.0,0.0,0.0,0.0,0.0,0.0,0.0,0.0,0.0
1626894338981098272,82815,1626894338981098272,imu,0.217100463996,0.680109775176,-0.203184550082,0.670100082712,0.0,0.0,0.0,0.0,0.0,0.0,0.0,0.0,0.0,-0.327777777778,0.00777777777778,-0.116666666667,0.0,0.0,0.0,0.0,0.0,0.0,0.0,0.0,0.0,10.34,0.01,0.0,0.0,0.0,0.0,0.0,0.0,0.0,0.0,0.0,0.0
1626894338991667075,82816,1626894338991667075,imu,0.215757929441,0.680537740669,-0.202574418052,0.670283898478,0.0,0.0,0.0,0.0,0.0,0.0,0.0,0.0,0.0,-0.306666666667,0.00333333333333,-0.113333333333,0.0,0.0,0.0,0.0,0.0,0.0,0.0,0.0,0.0,10.33,-0.05,0.03,0.0,0.0,0.0,0.0,0.0,0.0,0.0,0.0,0.0
1626894339004386085,82817,1626894339004386085,imu,0.214482020744,0.680922431252,-0.20196955226,0.670485201444,0.0,0.0,0.0,0.0,0.0,0.0,0.0,0.0,0.0,-0.286666666667,0.00333333333333,-0.111111111111,0.0,0.0,0.0,0.0,0.0,0.0,0.0,0.0,0.0,10.31,-0.02,0.01,0.0,0.0,0.0,0.0,0.0,0.0,0.0,0.0,0.0
1626894339014597700,82818,1626894339014597700,imu,0.213316854717,0.681271168054,-0.201476090821,0.670651101467,0.0,0.0,0.0,0.0,0.0,0.0,0.0,0.0,0.0,-0.262222222222,0.00111111111111,-0.104444444444,0.0,0.0,0.0,0.0,0.0,0.0,0.0,0.0,0.0,10.34,-0.06,0.03,0.0,0.0,0.0,0.0,0.0,0.0,0.0,0.0,0.0
1626894339024396554,82819,1626894339024396554,imu,0.212218350467,0.681637773374,-0.2009879287,0.670773561012,0.0,0.0,0.0,0.0,0.0,0.0,0.0,0.0,0.0,-0.238888888889,0.00444444444444,-0.0966666666667,0.0,0.0,0.0,0.0,0.0,0.0,0.0,0.0,0.0,10.31,-0.02,0.0,0.0,0.0,0.0,0.0,0.0,0.0,0.0,0.0,0.0
1626894339031222127,82820,1626894339031222127,imu,0.211248545814,0.681903713906,-0.200628133513,0.670917080492,0.0,0.0,0.0,0.0,0.0,0.0,0.0,0.0,0.0,-0.213333333333,0.00555555555556,-0.0911111111111,0.0,0.0,0.0,0.0,0.0,0.0,0.0,0.0,0.0,10.32,-0.02,0.04,0.0,0.0,0.0,0.0,0.0,0.0,0.0,0.0,0.0
1626894339041115043,82821,1626894339041115043,imu,0.21032801581,0.682192754704,-0.200257173498,0.671023275049,0.0,0.0,0.0,0.0,0.0,0.0,0.0,0.0,0.0,-0.197777777778,0.00222222222222,-0.0833333333333,0.0,0.0,0.0,0.0,0.0,0.0,0.0,0.0,0.0,10.3,0.0,0.03,0.0,0.0,0.0,0.0,0.0,0.0,0.0,0.0,0.0
1626894339054472804,82822,1626894339054472804,imu,0.209532741064,0.682430986845,-0.199889230115,0.671139534151,0.0,0.0,0.0,0.0,0.0,0.0,0.0,0.0,0.0,-0.177777777778,0.00111111111111,-0.0766666666667,0.0,0.0,0.0,0.0,0.0,0.0,0.0,0.0,0.0,10.33,0.0,0.04,0.0,0.0,0.0,0.0,0.0,0.0,0.0,0.0,0.0
1626894339064312543,82823,1626894339064312543,imu,0.208807846135,0.682638687863,-0.199652284335,0.671224754151,0.0,0.0,0.0,0.0,0.0,0.0,0.0,0.0,0.0,-0.155555555556,0.00222222222222,-0.0688888888889,0.0,0.0,0.0,0.0,0.0,0.0,0.0,0.0,0.0,10.29,0.0,-0.04,0.0,0.0,0.0,0.0,0.0,0.0,0.0,0.0,0.0
1626894339074636606,82824,1626894339074636606,imu,0.208182348819,0.682833221516,-0.199393648078,0.671298051793,0.0,0.0,0.0,0.0,0.0,0.0,0.0,0.0,0.0,-0.133333333333,-0.00111111111111,-0.06,0.0,0.0,0.0,0.0,0.0,0.0,0.0,0.0,0.0,10.31,0.0,-0.04,0.0,0.0,0.0,0.0,0.0,0.0,0.0,0.0,0.0
1626894339081388689,82825,1626894339081388689,imu,0.207641053522,0.6829815958,-0.199157189195,0.67138494672,0.0,0.0,0.0,0.0,0.0,0.0,0.0,0.0,0.0,-0.111111111111,-0.00444444444444,-0.0522222222222,0.0,0.0,0.0,0.0,0.0,0.0,0.0,0.0,0.0,10.32,0.02,-0.05,0.0,0.0,0.0,0.0,0.0,0.0,0.0,0.0,0.0
1626894339091202022,82826,1626894339091202022,imu,0.20721993137,0.683123850338,-0.199041000353,0.671404785,0.0,0.0,0.0,0.0,0.0,0.0,0.0,0.0,0.0,-0.0944444444444,-0.00444444444444,-0.0455555555556,0.0,0.0,0.0,0.0,0.0,0.0,0.0,0.0,0.0,10.29,0.04,0.0,0.0,0.0,0.0,0.0,0.0,0.0,0.0,0.0,0.0
1626894339105283377,82827,1626894339105283377,imu,0.206790265538,0.683237967071,-0.19891661021,0.671458002122,0.0,0.0,0.0,0.0,0.0,0.0,0.0,0.0,0.0,-0.0755555555556,-0.00777777777778,-0.0388888888889,0.0,0.0,0.0,0.0,0.0,0.0,0.0,0.0,0.0,10.29,0.01,-0.03,0.0,0.0,0.0,0.0,0.0,0.0,0.0,0.0,0.0
1626894339114526397,82828,1626894339114526397,imu,0.206474927645,0.683326423268,-0.19884579198,0.671486004716,0.0,0.0,0.0,0.0,0.0,0.0,0.0,0.0,0.0,-0.0588888888889,-0.01,-0.0355555555556,0.0,0.0,0.0,0.0,0.0,0.0,0.0,0.0,0.0,10.33,0.03,0.04,0.0,0.0,0.0,0.0,0.0,0.0,0.0,0.0,0.0
1626894339124992022,82829,1626894339124992022,imu,0.206293523215,0.68339307084,-0.198786392045,0.671491521424,0.0,0.0,0.0,0.0,0.0,0.0,0.0,0.0,0.0,-0.0422222222222,-0.01,-0.0288888888889,0.0,0.0,0.0,0.0,0.0,0.0,0.0,0.0,0.0,10.27,0.1,-0.09,0.0,0.0,0.0,0.0,0.0,0.0,0.0,0.0,0.0
1626894339132221710,82830,1626894339132221710,imu,0.206109607076,0.683451400661,-0.19878560564,0.671488864983,0.0,0.0,0.0,0.0,0.0,0.0,0.0,0.0,0.0,-0.0255555555556,-0.00888888888889,-0.0233333333333,0.0,0.0,0.0,0.0,0.0,0.0,0.0,0.0,0.0,10.27,0.1,-0.09,0.0,0.0,0.0,0.0,0.0,0.0,0.0,0.0,0.0
1626894339144634731,82831,1626894339144634731,imu,0.206057260205,0.683419177285,-0.198855021845,0.671517173215,0.0,0.0,0.0,0.0,0.0,0.0,0.0,0.0,0.0,-0.00666666666667,-0.0155555555556,-0.0222222222222,0.0,0.0,0.0,0.0,0.0,0.0,0.0,0.0,0.0,10.29,0.04,-0.02,0.0,0.0,0.0,0.0,0.0,0.0,0.0,0.0,0.0
1626894339154369470,82832,1626894339154369470,imu,0.205993961601,0.683350635285,-0.198974908095,0.671570832443,0.0,0.0,0.0,0.0,0.0,0.0,0.0,0.0,0.0,0.0144444444444,-0.0155555555556,-0.0133333333333,0.0,0.0,0.0,0.0,0.0,0.0,0.0,0.0,0.0,10.26,0.09,-0.05,0.0,0.0,0.0,0.0,0.0,0.0,0.0,0.0,0.0
1626894339164392960,82833,1626894339164392960,imu,0.206114436151,0.68328430936,-0.199095436993,0.671565632505,0.0,0.0,0.0,0.0,0.0,0.0,0.0,0.0,0.0,0.0333333333333,-0.0177777777778,-0.01,0.0,0.0,0.0,0.0,0.0,0.0,0.0,0.0,0.0,10.28,0.08,-0.06,0.0,0.0,0.0,0.0,0.0,0.0,0.0,0.0,0.0
1626894339174645877,82834,1626894339174645877,imu,0.206240993763,0.683177106596,-0.199282877963,0.671580246929,0.0,0.0,0.0,0.0,0.0,0.0,0.0,0.0,0.0,0.0488888888889,-0.02,-0.00555555555556,0.0,0.0,0.0,0.0,0.0,0.0,0.0,0.0,0.0,10.29,0.06,0.0,0.0,0.0,0.0,0.0,0.0,0.0,0.0,0.0,0.0
1626894339181122074,82835,1626894339181122074,imu,0.206425980799,0.683061251072,-0.199467801671,0.671586359176,0.0,0.0,0.0,0.0,0.0,0.0,0.0,0.0,0.0,0.0577777777778,-0.0166666666667,0.0,0.0,0.0,0.0,0.0,0.0,0.0,0.0,0.0,0.0,10.28,0.02,0.04,0.0,0.0,0.0,0.0,0.0,0.0,0.0,0.0,0.0
1626894339191196502,82836,1626894339191196502,imu,0.20659982401,0.682969580701,-0.19970299089,0.671556237396,0.0,0.0,0.0,0.0,0.0,0.0,0.0,0.0,0.0,0.0588888888889,-0.0122222222222,0.00777777777778,0.0,0.0,0.0,0.0,0.0,0.0,0.0,0.0,0.0,10.29,0.0,0.0,0.0,0.0,0.0,0.0,0.0,0.0,0.0,0.0,0.0
1626894339204568272,82837,1626894339204568272,imu,0.206845719592,0.682853322749,-0.19982675891,0.671561951216,0.0,0.0,0.0,0.0,0.0,0.0,0.0,0.0,0.0,0.0622222222222,-0.0122222222222,0.0155555555556,0.0,0.0,0.0,0.0,0.0,0.0,0.0,0.0,0.0,10.28,0.06,-0.04,0.0,0.0,0.0,0.0,0.0,0.0,0.0,0.0,0.0
1626894339214213012,82838,1626894339214213012,imu,0.207089073179,0.682728668605,-0.200009104865,0.671559408248,0.0,0.0,0.0,0.0,0.0,0.0,0.0,0.0,0.0,0.0655555555556,-0.0122222222222,0.0233333333333,0.0,0.0,0.0,0.0,0.0,0.0,0.0,0.0,0.0,10.3,0.04,0.0,0.0,0.0,0.0,0.0,0.0,0.0,0.0,0.0,0.0
1626894339224522960,82839,1626894339224522960,imu,0.207457721323,0.68261463821,-0.200194564854,0.671506281257,0.0,0.0,0.0,0.0,0.0,0.0,0.0,0.0,0.0,0.0811111111111,-0.01,0.0266666666667,0.0,0.0,0.0,0.0,0.0,0.0,0.0,0.0,0.0,10.27,0.0,0.0,0.0,0.0,0.0,0.0,0.0,0.0,0.0,0.0,0.0
1626894339231170877,82840,1626894339231170877,imu,0.207884737753,0.682491819599,-0.200377449807,0.671444509695,0.0,0.0,0.0,0.0,0.0,0.0,0.0,0.0,0.0,0.0966666666667,-0.00777777777778,0.03,0.0,0.0,0.0,0.0,0.0,0.0,0.0,0.0,0.0,10.3,0.0,-0.03,0.0,0.0,0.0,0.0,0.0,0.0,0.0,0.0,0.0
1626894339241602856,82841,1626894339241602856,imu,0.208309154041,0.682360487014,-0.200618865905,0.671374361105,0.0,0.0,0.0,0.0,0.0,0.0,0.0,0.0,0.0,0.101111111111,-0.00666666666667,0.0366666666667,0.0,0.0,0.0,0.0,0.0,0.0,0.0,0.0,0.0,10.28,0.03,0.01,0.0,0.0,0.0,0.0,0.0,0.0,0.0,0.0,0.0
1626894339253988324,82842,1626894339253988324,imu,0.208803130551,0.682196021681,-0.200807453819,0.671331667036,0.0,0.0,0.0,0.0,0.0,0.0,0.0,0.0,0.0,0.104444444444,-0.00444444444444,0.0433333333333,0.0,0.0,0.0,0.0,0.0,0.0,0.0,0.0,0.0,10.27,0.02,-0.02,0.0,0.0,0.0,0.0,0.0,0.0,0.0,0.0,0.0
1626894339264259835,82843,1626894339264259835,imu,0.209285789002,0.682055611578,-0.20104619101,0.671252583099,0.0,0.0,0.0,0.0,0.0,0.0,0.0,0.0,0.0,0.108888888889,0.0,0.0444444444444,0.0,0.0,0.0,0.0,0.0,0.0,0.0,0.0,0.0,10.27,0.06,-0.05,0.0,0.0,0.0,0.0,0.0,0.0,0.0,0.0,0.0
1626894339274667179,82844,1626894339274667179,imu,0.20977966268,0.681890716165,-0.201234666237,0.671209470611,0.0,0.0,0.0,0.0,0.0,0.0,0.0,0.0,0.0,0.11,-0.00222222222222,0.05,0.0,0.0,0.0,0.0,0.0,0.0,0.0,0.0,0.0,10.24,0.05,-0.08,0.0,0.0,0.0,0.0,0.0,0.0,0.0,0.0,0.0
1626894339281075304,82845,1626894339281075304,imu,0.210323083603,0.681749519399,-0.20141212301,0.671129607459,0.0,0.0,0.0,0.0,0.0,0.0,0.0,0.0,0.0,0.116666666667,-0.00111111111111,0.0511111111111,0.0,0.0,0.0,0.0,0.0,0.0,0.0,0.0,0.0,10.26,0.12,0.0,0.0,0.0,0.0,0.0,0.0,0.0,0.0,0.0,0.0
1626894339291173637,82846,1626894339291173637,imu,0.210881213811,0.681594939112,-0.201664697665,0.671035619289,0.0,0.0,0.0,0.0,0.0,0.0,0.0,0.0,0.0,0.121111111111,0.00444444444444,0.05,0.0,0.0,0.0,0.0,0.0,0.0,0.0,0.0,0.0,10.29,0.04,0.09,0.0,0.0,0.0,0.0,0.0,0.0,0.0,0.0,0.0
1626894339304735876,82847,1626894339304735876,imu,0.211488952299,0.681403366081,-0.20190633599,0.670966248954,0.0,0.0,0.0,0.0,0.0,0.0,0.0,0.0,0.0,0.127777777778,0.00333333333333,0.0555555555556,0.0,0.0,0.0,0.0,0.0,0.0,0.0,0.0,0.0,10.24,-0.02,0.07,0.0,0.0,0.0,0.0,0.0,0.0,0.0,0.0,0.0
1626894339314410616,82848,1626894339314410616,imu,0.212096576169,0.681211478164,-0.202147873459,0.670896565539,0.0,0.0,0.0,0.0,0.0,0.0,0.0,0.0,0.0,0.126666666667,0.00555555555556,0.0611111111111,0.0,0.0,0.0,0.0,0.0,0.0,0.0,0.0,0.0,10.22,-0.01,-0.05,0.0,0.0,0.0,0.0,0.0,0.0,0.0,0.0,0.0
1626894339324622074,82849,1626894339324622074,imu,0.212706711687,0.681027686945,-0.202330774531,0.670834854562,0.0,0.0,0.0,0.0,0.0,0.0,0.0,0.0,0.0,0.126666666667,0.01,0.0688888888889,0.0,0.0,0.0,0.0,0.0,0.0,0.0,0.0,0.0,10.24,-0.05,-0.06,0.0,0.0,0.0,0.0,0.0,0.0,0.0,0.0,0.0
1626894339331412595,82850,1626894339331412595,imu,0.213375007778,0.680834728765,-0.202510948457,0.670764111979,0.0,0.0,0.0,0.0,0.0,0.0,0.0,0.0,0.0,0.134444444444,0.00444444444444,0.0755555555556,0.0,0.0,0.0,0.0,0.0,0.0,0.0,0.0,0.0,10.26,-0.03,-0.18,0.0,0.0,0.0,0.0,0.0,0.0,0.0,0.0,0.0
1626894339341257960,82851,1626894339341257960,imu,0.214110302783,0.680599768054,-0.202696783222,0.670712120092,0.0,0.0,0.0,0.0,0.0,0.0,0.0,0.0,0.0,0.141111111111,0.00111111111111,0.0744444444444,0.0,0.0,0.0,0.0,0.0,0.0,0.0,0.0,0.0,10.23,-0.03,-0.02,0.0,0.0,0.0,0.0,0.0,0.0,0.0,0.0,0.0
1626894339353955981,82852,1626894339353955981,imu,0.214842820793,0.680355944143,-0.202941016801,0.670651396272,0.0,0.0,0.0,0.0,0.0,0.0,0.0,0.0,0.0,0.147777777778,-0.00222222222222,0.08,0.0,0.0,0.0,0.0,0.0,0.0,0.0,0.0,0.0,10.27,0.05,-0.14,0.0,0.0,0.0,0.0,0.0,0.0,0.0,0.0,0.0
1626894339364406606,82853,1626894339364406606,imu,0.215575071257,0.680172308632,-0.203184997796,0.670528803179,0.0,0.0,0.0,0.0,0.0,0.0,0.0,0.0,0.0,0.157777777778,-0.00444444444444,0.08,0.0,0.0,0.0,0.0,0.0,0.0,0.0,0.0,0.0,10.2,0.0,-0.11,0.0,0.0,0.0,0.0,0.0,0.0,0.0,0.0,0.0
1626894339376356137,82854,1626894339376356137,imu,0.217168205847,0.679642487944,-0.20380119149,0.670364925468,0.0,0.0,0.0,0.0,0.0,0.0,0.0,0.0,0.0,0.167777777778,-0.00666666666667,0.0788888888889,0.0,0.0,0.0,0.0,0.0,0.0,0.0,0.0,0.0,10.24,-0.03,-0.06,0.0,0.0,0.0,0.0,0.0,0.0,0.0,0.0,0.0
1626894339383893116,82855,1626894339383893116,imu,0.217168205847,0.679642487944,-0.20380119149,0.670364925468,0.0,0.0,0.0,0.0,0.0,0.0,0.0,0.0,0.0,0.172222222222,-0.00555555555556,0.0777777777778,0.0,0.0,0.0,0.0,0.0,0.0,0.0,0.0,0.0,10.24,-0.03,-0.06,0.0,0.0,0.0,0.0,0.0,0.0,0.0,0.0,0.0
1626894339391194991,82856,1626894339391194991,imu,0.218022619493,0.679398034037,-0.204106282079,0.670242548896,0.0,0.0,0.0,0.0,0.0,0.0,0.0,0.0,0.0,0.175555555556,-0.00666666666667,0.0777777777778,0.0,0.0,0.0,0.0,0.0,0.0,0.0,0.0,0.0,10.23,-0.1,0.09,0.0,0.0,0.0,0.0,0.0,0.0,0.0,0.0,0.0
1626894339404282804,82857,1626894339404282804,imu,0.218809772116,0.679134263413,-0.204405558387,0.670162147234,0.0,0.0,0.0,0.0,0.0,0.0,0.0,0.0,0.0,0.173333333333,0.0,0.0766666666667,0.0,0.0,0.0,0.0,0.0,0.0,0.0,0.0,0.0,10.23,0.0,-0.05,0.0,0.0,0.0,0.0,0.0,0.0,0.0,0.0,0.0
1626894339414443637,82858,1626894339414443637,imu,0.219602943559,0.678889255476,-0.20477150518,0.67003922023,0.0,0.0,0.0,0.0,0.0,0.0,0.0,0.0,0.0,0.178888888889,0.00444444444444,0.0755555555556,0.0,0.0,0.0,0.0,0.0,0.0,0.0,0.0,0.0,10.2,-0.06,0.1,0.0,0.0,0.0,0.0,0.0,0.0,0.0,0.0,0.0
1626894339424298324,82859,1626894339424298324,imu,0.220453996949,0.678634549301,-0.205134519309,0.669906719411,0.0,0.0,0.0,0.0,0.0,0.0,0.0,0.0,0.0,0.187777777778,0.00555555555556,0.07,0.0,0.0,0.0,0.0,0.0,0.0,0.0,0.0,0.0,10.27,-0.04,-0.02,0.0,0.0,0.0,0.0,0.0,0.0,0.0,0.0,0.0
1626894339432028220,82860,1626894339432028220,imu,0.221313862822,0.678406945742,-0.205505729763,0.669739938428,0.0,0.0,0.0,0.0,0.0,0.0,0.0,0.0,0.0,0.193333333333,0.0111111111111,0.07,0.0,0.0,0.0,0.0,0.0,0.0,0.0,0.0,0.0,10.23,0.03,-0.05,0.0,0.0,0.0,0.0,0.0,0.0,0.0,0.0,0.0
1626894339441201345,82861,1626894339441201345,imu,0.222103664144,0.678151638446,-0.205929585827,0.669606842354,0.0,0.0,0.0,0.0,0.0,0.0,0.0,0.0,0.0,0.193333333333,0.01,0.0655555555556,0.0,0.0,0.0,0.0,0.0,0.0,0.0,0.0,0.0,10.23,-0.01,-0.03,0.0,0.0,0.0,0.0,0.0,0.0,0.0,0.0,0.0
1626894339454014158,82862,1626894339454014158,imu,0.222960351413,0.677914213836,-0.20635886891,0.669430367998,0.0,0.0,0.0,0.0,0.0,0.0,0.0,0.0,0.0,0.187777777778,0.01,0.0622222222222,0.0,0.0,0.0,0.0,0.0,0.0,0.0,0.0,0.0,10.21,0.0,-0.15,0.0,0.0,0.0,0.0,0.0,0.0,0.0,0.0,0.0
1626894339464227439,82863,1626894339464227439,imu,0.223691731875,0.677666930153,-0.206785153504,0.669305192836,0.0,0.0,0.0,0.0,0.0,0.0,0.0,0.0,0.0,0.183333333333,0.00888888888889,0.0544444444444,0.0,0.0,0.0,0.0,0.0,0.0,0.0,0.0,0.0,10.22,-0.08,0.03,0.0,0.0,0.0,0.0,0.0,0.0,0.0,0.0,0.0
1626894339474870147,82864,1626894339474870147,imu,0.224422927484,0.677419111271,-0.207211269733,0.66917948788,0.0,0.0,0.0,0.0,0.0,0.0,0.0,0.0,0.0,0.184444444444,0.00777777777778,0.0522222222222,0.0,0.0,0.0,0.0,0.0,0.0,0.0,0.0,0.0,10.21,-0.15,0.02,0.0,0.0,0.0,0.0,0.0,0.0,0.0,0.0,0.0
1626894339481411397,82865,1626894339481411397,imu,0.225221071506,0.677189102536,-0.207642841535,0.669010342757,0.0,0.0,0.0,0.0,0.0,0.0,0.0,0.0,0.0,0.187777777778,0.00777777777778,0.0488888888889,0.0,0.0,0.0,0.0,0.0,0.0,0.0,0.0,0.0,10.21,-0.15,0.02,0.0,0.0,0.0,0.0,0.0,0.0,0.0,0.0,0.0
1626894339491154314,82866,1626894339491154314,imu,0.225958254227,0.676959210597,-0.208135507,0.668841315456,0.0,0.0,0.0,0.0,0.0,0.0,0.0,0.0,0.0,0.192222222222,0.00666666666667,0.0466666666667,0.0,0.0,0.0,0.0,0.0,0.0,0.0,0.0,0.0,10.19,-0.09,-0.16,0.0,0.0,0.0,0.0,0.0,0.0,0.0,0.0,0.0
1626894339504264574,82867,1626894339504264574,imu,0.226743916946,0.676691738137,-0.208616610531,0.66869619221,0.0,0.0,0.0,0.0,0.0,0.0,0.0,0.0,0.0,0.194444444444,0.00444444444444,0.0433333333333,0.0,0.0,0.0,0.0,0.0,0.0,0.0,0.0,0.0,10.21,0.02,-0.15,0.0,0.0,0.0,0.0,0.0,0.0,0.0,0.0,0.0
1626894339514730199,82868,1626894339514730199,imu,0.227480719227,0.676460641585,-0.209108919793,0.668525977378,0.0,0.0,0.0,0.0,0.0,0.0,0.0,0.0,0.0,0.187777777778,-0.00333333333333,0.0422222222222,0.0,0.0,0.0,0.0,0.0,0.0,0.0,0.0,0.0,10.22,-0.03,-0.08,0.0,0.0,0.0,0.0,0.0,0.0,0.0,0.0,0.0
1626894339524410303,82869,1626894339524410303,imu,0.228152993597,0.676280141533,-0.20953697887,0.668345446732,0.0,0.0,0.0,0.0,0.0,0.0,0.0,0.0,0.0,0.18,-0.00666666666667,0.0377777777778,0.0,0.0,0.0,0.0,0.0,0.0,0.0,0.0,0.0,10.2,-0.09,0.01,0.0,0.0,0.0,0.0,0.0,0.0,0.0,0.0,0.0
1626894339532751553,82870,1626894339532751553,imu,0.228812957606,0.676002218843,-0.210014773839,0.668251019693,0.0,0.0,0.0,0.0,0.0,0.0,0.0,0.0,0.0,0.173333333333,-0.0133333333333,0.0344444444444,0.0,0.0,0.0,0.0,0.0,0.0,0.0,0.0,0.0,10.2,-0.09,0.01,0.0,0.0,0.0,0.0,0.0,0.0,0.0,0.0,0.0
1626894339541136085,82871,1626894339541136085,imu,0.229482041068,0.675751371996,-0.210500946714,0.668122314779,0.0,0.0,0.0,0.0,0.0,0.0,0.0,0.0,0.0,0.177777777778,-0.0111111111111,0.0322222222222,0.0,0.0,0.0,0.0,0.0,0.0,0.0,0.0,0.0,10.19,-0.16,-0.14,0.0,0.0,0.0,0.0,0.0,0.0,0.0,0.0,0.0
1626894339554214887,82872,1626894339554214887,imu,0.230096097913,0.67551819939,-0.210931595328,0.66801108532,0.0,0.0,0.0,0.0,0.0,0.0,0.0,0.0,0.0,0.174444444444,-0.0122222222222,0.0288888888889,0.0,0.0,0.0,0.0,0.0,0.0,0.0,0.0,0.0,10.2,-0.06,-0.09,0.0,0.0,0.0,0.0,0.0,0.0,0.0,0.0,0.0
1626894339564336658,82873,1626894339564336658,imu,0.23071656152,0.675242677273,-0.211429145266,0.667918341987,0.0,0.0,0.0,0.0,0.0,0.0,0.0,0.0,0.0,0.167777777778,-0.0166666666667,0.0233333333333,0.0,0.0,0.0,0.0,0.0,0.0,0.0,0.0,0.0,10.16,-0.12,-0.06,0.0,0.0,0.0,0.0,0.0,0.0,0.0,0.0,0.0
1626894339575408897,82874,1626894339575408897,imu,0.231269611711,0.675009405096,-0.21192084768,0.667807026056,0.0,0.0,0.0,0.0,0.0,0.0,0.0,0.0,0.0,0.16,-0.02,0.02,0.0,0.0,0.0,0.0,0.0,0.0,0.0,0.0,0.0,10.21,-0.07,-0.03,0.0,0.0,0.0,0.0,0.0,0.0,0.0,0.0,0.0
1626894339581266033,82875,1626894339581266033,imu,0.231755332622,0.674757756685,-0.212406783651,0.667738566996,0.0,0.0,0.0,0.0,0.0,0.0,0.0,0.0,0.0,0.155555555556,-0.0222222222222,0.0155555555556,0.0,0.0,0.0,0.0,0.0,0.0,0.0,0.0,0.0,10.21,-0.07,-0.03,0.0,0.0,0.0,0.0,0.0,0.0,0.0,0.0,0.0
1626894339591123585,82876,1626894339591123585,imu,0.2322921144,0.674538215541,-0.212822544118,0.667641471209,0.0,0.0,0.0,0.0,0.0,0.0,0.0,0.0,0.0,0.148888888889,-0.02,0.0144444444444,0.0,0.0,0.0,0.0,0.0,0.0,0.0,0.0,0.0,10.16,-0.11,-0.1,0.0,0.0,0.0,0.0,0.0,0.0,0.0,0.0,0.0
1626894339604556710,82877,1626894339604556710,imu,0.232729300183,0.674322923792,-0.213319932898,0.667547955966,0.0,0.0,0.0,0.0,0.0,0.0,0.0,0.0,0.0,0.143333333333,-0.0177777777778,0.00777777777778,0.0,0.0,0.0,0.0,0.0,0.0,0.0,0.0,0.0,10.19,-0.12,-0.07,0.0,0.0,0.0,0.0,0.0,0.0,0.0,0.0,0.0
1626894339614421866,82878,1626894339614421866,imu,0.233089599581,0.674122709445,-0.213802793226,0.667469981937,0.0,0.0,0.0,0.0,0.0,0.0,0.0,0.0,0.0,0.136666666667,-0.0233333333333,0.00222222222222,0.0,0.0,0.0,0.0,0.0,0.0,0.0,0.0,0.0,10.19,-0.13,-0.07,0.0,0.0,0.0,0.0,0.0,0.0,0.0,0.0,0.0
1626894339624411033,82879,1626894339624411033,imu,0.233529661337,0.673915575227,-0.214241795947,0.667384557516,0.0,0.0,0.0,0.0,0.0,0.0,0.0,0.0,0.0,0.132222222222,-0.0222222222222,0.0,0.0,0.0,0.0,0.0,0.0,0.0,0.0,0.0,0.0,10.18,-0.2,-0.01,0.0,0.0,0.0,0.0,0.0,0.0,0.0,0.0,0.0
1626894339631356762,82880,1626894339631356762,imu,0.233892822417,0.673723636179,-0.214666246461,0.667314777527,0.0,0.0,0.0,0.0,0.0,0.0,0.0,0.0,0.0,0.122222222222,-0.0211111111111,-0.00666666666667,0.0,0.0,0.0,0.0,0.0,0.0,0.0,0.0,0.0,10.18,-0.2,-0.01,0.0,0.0,0.0,0.0,0.0,0.0,0.0,0.0,0.0
1626894339641180928,82881,1626894339641180928,imu,0.234249425599,0.67351287428,-0.215023638975,0.667287381469,0.0,0.0,0.0,0.0,0.0,0.0,0.0,0.0,0.0,0.113333333333,-0.0244444444444,-0.00888888888889,0.0,0.0,0.0,0.0,0.0,0.0,0.0,0.0,0.0,10.19,-0.1,-0.08,0.0,0.0,0.0,0.0,0.0,0.0,0.0,0.0,0.0
1626894339654125251,82882,1626894339654125251,imu,0.23450659586,0.673367195607,-0.215462853562,0.667202394415,0.0,0.0,0.0,0.0,0.0,0.0,0.0,0.0,0.0,0.11,-0.0211111111111,-0.0122222222222,0.0,0.0,0.0,0.0,0.0,0.0,0.0,0.0,0.0,10.17,-0.1,-0.07,0.0,0.0,0.0,0.0,0.0,0.0,0.0,0.0,0.0
1626894339664454626,82883,1626894339664454626,imu,0.234744521348,0.673227267414,-0.215884392098,0.667123665714,0.0,0.0,0.0,0.0,0.0,0.0,0.0,0.0,0.0,0.103333333333,-0.0222222222222,-0.0188888888889,0.0,0.0,0.0,0.0,0.0,0.0,0.0,0.0,0.0,10.18,-0.09,-0.04,0.0,0.0,0.0,0.0,0.0,0.0,0.0,0.0,0.0
1626894339674638845,82884,1626894339674638845,imu,0.234982458894,0.673026382916,-0.216305930992,0.66710604564,0.0,0.0,0.0,0.0,0.0,0.0,0.0,0.0,0.0,0.0977777777778,-0.0255555555556,-0.0233333333333,0.0,0.0,0.0,0.0,0.0,0.0,0.0,0.0,0.0,10.17,-0.1,-0.06,0.0,0.0,0.0,0.0,0.0,0.0,0.0,0.0,0.0
1626894339681624783,82885,1626894339681624783,imu,0.235104919192,0.672905434605,-0.216733532724,0.667046121977,0.0,0.0,0.0,0.0,0.0,0.0,0.0,0.0,0.0,0.0877777777778,-0.0255555555556,-0.0311111111111,0.0,0.0,0.0,0.0,0.0,0.0,0.0,0.0,0.0,10.17,-0.1,-0.06,0.0,0.0,0.0,0.0,0.0,0.0,0.0,0.0,0.0
1626894339691861866,82886,1626894339691861866,imu,0.235230446482,0.672793256765,-0.217102931535,0.666994893398,0.0,0.0,0.0,0.0,0.0,0.0,0.0,0.0,0.0,0.0733333333333,-0.0255555555556,-0.04,0.0,0.0,0.0,0.0,0.0,0.0,0.0,0.0,0.0,10.18,-0.08,-0.02,0.0,0.0,0.0,0.0,0.0,0.0,0.0,0.0,0.0
1626894339704940303,82887,1626894339704940303,imu,0.235227923191,0.672663970289,-0.21752784594,0.666987738618,0.0,0.0,0.0,0.0,0.0,0.0,0.0,0.0,0.0,0.0666666666667,-0.0288888888889,-0.0433333333333,0.0,0.0,0.0,0.0,0.0,0.0,0.0,0.0,0.0,10.18,-0.12,-0.1,0.0,0.0,0.0,0.0,0.0,0.0,0.0,0.0,0.0
1626894339714362699,82888,1626894339714362699,imu,0.235295716985,0.672561220611,-0.217900313784,0.666945862385,0.0,0.0,0.0,0.0,0.0,0.0,0.0,0.0,0.0,0.0611111111111,-0.0322222222222,-0.0466666666667,0.0,0.0,0.0,0.0,0.0,0.0,0.0,0.0,0.0,10.14,-0.06,-0.08,0.0,0.0,0.0,0.0,0.0,0.0,0.0,0.0,0.0
1626894339724890199,82889,1626894339724890199,imu,0.235228927415,0.672483736965,-0.218261194717,0.666929551081,0.0,0.0,0.0,0.0,0.0,0.0,0.0,0.0,0.0,0.0522222222222,-0.0366666666667,-0.0522222222222,0.0,0.0,0.0,0.0,0.0,0.0,0.0,0.0,0.0,10.17,-0.04,-0.1,0.0,0.0,0.0,0.0,0.0,0.0,0.0,0.0,0.0
1626894339733620408,82890,1626894339733620408,imu,0.235162185929,0.672345351726,-0.218622099662,0.666974401204,0.0,0.0,0.0,0.0,0.0,0.0,0.0,0.0,0.0,0.0455555555556,-0.0366666666667,-0.0588888888889,0.0,0.0,0.0,0.0,0.0,0.0,0.0,0.0,0.0,10.17,-0.04,-0.1,0.0,0.0,0.0,0.0,0.0,0.0,0.0,0.0,0.0
1626894339741142908,82891,1626894339741142908,imu,0.235047319693,0.672243879278,-0.218995009883,0.666994835006,0.0,0.0,0.0,0.0,0.0,0.0,0.0,0.0,0.0,0.0388888888889,-0.0377777777778,-0.0622222222222,0.0,0.0,0.0,0.0,0.0,0.0,0.0,0.0,0.0,10.13,-0.04,-0.08,0.0,0.0,0.0,0.0,0.0,0.0,0.0,0.0,0.0
1626894339754028585,82892,1626894339754028585,imu,0.234922770012,0.67217575114,-0.219358907618,0.666987797009,0.0,0.0,0.0,0.0,0.0,0.0,0.0,0.0,0.0,0.0411111111111,-0.0433333333333,-0.0644444444444,0.0,0.0,0.0,0.0,0.0,0.0,0.0,0.0,0.0,10.15,-0.03,-0.05,0.0,0.0,0.0,0.0,0.0,0.0,0.0,0.0,0.0
1626894339764394574,82893,1626894339764394574,imu,0.234737440711,0.672047311408,-0.219784067603,0.66704250898,0.0,0.0,0.0,0.0,0.0,0.0,0.0,0.0,0.0,0.04,-0.0444444444444,-0.07,0.0,0.0,0.0,0.0,0.0,0.0,0.0,0.0,0.0,10.12,-0.13,-0.11,0.0,0.0,0.0,0.0,0.0,0.0,0.0,0.0,0.0
1626894339776682803,82894,1626894339776682803,imu,0.234619286587,0.671936453184,-0.220214980751,0.667053637646,0.0,0.0,0.0,0.0,0.0,0.0,0.0,0.0,0.0,0.0455555555556,-0.0455555555556,-0.0722222222222,0.0,0.0,0.0,0.0,0.0,0.0,0.0,0.0,0.0,10.14,-0.03,-0.09,0.0,0.0,0.0,0.0,0.0,0.0,0.0,0.0,0.0
1626894339782859835,82895,1626894339782859835,imu,0.23450107879,0.671825448787,-0.220645861485,0.667064625219,0.0,0.0,0.0,0.0,0.0,0.0,0.0,0.0,0.0,0.0433333333333,-0.0466666666667,-0.0722222222222,0.0,0.0,0.0,0.0,0.0,0.0,0.0,0.0,0.0,10.14,-0.03,-0.09,0.0,0.0,0.0,0.0,0.0,0.0,0.0,0.0,0.0
1626894339791202283,82896,1626894339791202283,imu,0.234373274307,0.671686948894,-0.221067708214,0.66710934588,0.0,0.0,0.0,0.0,0.0,0.0,0.0,0.0,0.0,0.05,-0.0522222222222,-0.0733333333333,0.0,0.0,0.0,0.0,0.0,0.0,0.0,0.0,0.0,10.13,-0.08,-0.07,0.0,0.0,0.0,0.0,0.0,0.0,0.0,0.0,0.0
1626894339804359210,82897,1626894339804359210,imu,0.234251796546,0.671566575665,-0.221556545457,0.667111030811,0.0,0.0,0.0,0.0,0.0,0.0,0.0,0.0,0.0,0.0533333333333,-0.0533333333333,-0.0744444444444,0.0,0.0,0.0,0.0,0.0,0.0,0.0,0.0,0.0,10.14,-0.03,-0.04,0.0,0.0,0.0,0.0,0.0,0.0,0.0,0.0,0.0
1626894339814555199,82898,1626894339814555199,imu,0.234130316429,0.671385161814,-0.222045383516,0.667173745799,0.0,0.0,0.0,0.0,0.0,0.0,0.0,0.0,0.0,0.0611111111111,-0.0544444444444,-0.0766666666667,0.0,0.0,0.0,0.0,0.0,0.0,0.0,0.0,0.0,10.14,-0.03,-0.1,0.0,0.0,0.0,0.0,0.0,0.0,0.0,0.0,0.0
1626894339825294835,82899,1626894339825294835,imu,0.234005531398,0.671255303682,-0.222592116069,0.667166005142,0.0,0.0,0.0,0.0,0.0,0.0,0.0,0.0,0.0,0.0655555555556,-0.0522222222222,-0.0766666666667,0.0,0.0,0.0,0.0,0.0,0.0,0.0,0.0,0.0,10.13,-0.01,-0.18,0.0,0.0,0.0,0.0,0.0,0.0,0.0,0.0,0.0
1626894339831185095,82900,1626894339831185095,imu,0.23394794782,0.671082099214,-0.22314471621,0.667175845976,0.0,0.0,0.0,0.0,0.0,0.0,0.0,0.0,0.0,0.0688888888889,-0.0511111111111,-0.08,0.0,0.0,0.0,0.0,0.0,0.0,0.0,0.0,0.0,10.13,-0.01,-0.18,0.0,0.0,0.0,0.0,0.0,0.0,0.0,0.0,0.0
1626894339841709783,82901,1626894339841709783,imu,0.233890283303,0.670908662335,-0.223697256865,0.667185461061,0.0,0.0,0.0,0.0,0.0,0.0,0.0,0.0,0.0,0.0755555555556,-0.0555555555556,-0.0788888888889,0.0,0.0,0.0,0.0,0.0,0.0,0.0,0.0,0.0,10.12,0.03,-0.11,0.0,0.0,0.0,0.0,0.0,0.0,0.0,0.0,0.0
1626894339853971553,82902,1626894339853971553,imu,0.233774837074,0.670744565173,-0.224252937705,0.667204371818,0.0,0.0,0.0,0.0,0.0,0.0,0.0,0.0,0.0,0.0766666666667,-0.0577777777778,-0.08,0.0,0.0,0.0,0.0,0.0,0.0,0.0,0.0,0.0,10.11,0.02,-0.16,0.0,0.0,0.0,0.0,0.0,0.0,0.0,0.0,0.0
1626894339864508168,82903,1626894339864508168,imu,0.233704283221,0.670534148726,-0.224854160195,0.66723824084,0.0,0.0,0.0,0.0,0.0,0.0,0.0,0.0,0.0,0.0833333333333,-0.0588888888889,-0.0822222222222,0.0,0.0,0.0,0.0,0.0,0.0,0.0,0.0,0.0,10.1,0.08,-0.09,0.0,0.0,0.0,0.0,0.0,0.0,0.0,0.0,0.0
1626894339876570303,82904,1626894339876570303,imu,0.233710373455,0.670368511794,-0.225470389017,0.667194591862,0.0,0.0,0.0,0.0,0.0,0.0,0.0,0.0,0.0,0.09,-0.0544444444444,-0.0811111111111,0.0,0.0,0.0,0.0,0.0,0.0,0.0,0.0,0.0,10.1,0.03,-0.08,0.0,0.0,0.0,0.0,0.0,0.0,0.0,0.0,0.0
1626894339882657283,82905,1626894339882657283,imu,0.233706851161,0.670175300536,-0.226077350927,0.667184536444,0.0,0.0,0.0,0.0,0.0,0.0,0.0,0.0,0.0,0.0966666666667,-0.0588888888889,-0.0788888888889,0.0,0.0,0.0,0.0,0.0,0.0,0.0,0.0,0.0,10.1,0.03,-0.08,0.0,0.0,0.0,0.0,0.0,0.0,0.0,0.0,0.0
1626894339891136553,82906,1626894339891136553,imu,0.233709556753,0.669938912228,-0.226751371987,0.667192260347,0.0,0.0,0.0,0.0,0.0,0.0,0.0,0.0,0.0,0.108888888889,-0.0611111111111,-0.0766666666667,0.0,0.0,0.0,0.0,0.0,0.0,0.0,0.0,0.0,10.09,0.0,-0.07,0.0,0.0,0.0,0.0,0.0,0.0,0.0,0.0,0.0
1626894339904227908,82907,1626894339904227908,imu,0.233827545089,0.669683065707,-0.227418802663,0.667180604378,0.0,0.0,0.0,0.0,0.0,0.0,0.0,0.0,0.0,0.118888888889,-0.0611111111111,-0.0722222222222,0.0,0.0,0.0,0.0,0.0,0.0,0.0,0.0,0.0,10.08,-0.01,-0.18,0.0,0.0,0.0,0.0,0.0,0.0,0.0,0.0,0.0
1626894339914907491,82908,1626894339914907491,imu,0.233954932974,0.66945413641,-0.22809537817,0.6671347293,0.0,0.0,0.0,0.0,0.0,0.0,0.0,0.0,0.0,0.127777777778,-0.0566666666667,-0.0655555555556,0.0,0.0,0.0,0.0,0.0,0.0,0.0,0.0,0.0,10.08,0.01,-0.14,0.0,0.0,0.0,0.0,0.0,0.0,0.0,0.0,0.0
1626894339925382960,82909,1626894339925382960,imu,0.234127092847,0.669178687688,-0.228817119677,0.66710352576,0.0,0.0,0.0,0.0,0.0,0.0,0.0,0.0,0.0,0.138888888889,-0.0577777777778,-0.0622222222222,0.0,0.0,0.0,0.0,0.0,0.0,0.0,0.0,0.0,10.08,0.06,-0.15,0.0,0.0,0.0,0.0,0.0,0.0,0.0,0.0,0.0
1626894339931304730,82910,1626894339931304730,imu,0.234318194971,0.668896352876,-0.229557366837,0.667065265132,0.0,0.0,0.0,0.0,0.0,0.0,0.0,0.0,0.0,0.15,-0.0622222222222,-0.0566666666667,0.0,0.0,0.0,0.0,0.0,0.0,0.0,0.0,0.0,10.08,0.06,-0.15,0.0,0.0,0.0,0.0,0.0,0.0,0.0,0.0,0.0
1626894339943527126,82911,1626894339943527126,imu,0.234614960278,0.668567189096,-0.230281541397,0.667041337377,0.0,0.0,0.0,0.0,0.0,0.0,0.0,0.0,0.0,0.157777777778,-0.06,-0.0522222222222,0.0,0.0,0.0,0.0,0.0,0.0,0.0,0.0,0.0,10.08,0.06,-0.27,0.0,0.0,0.0,0.0,0.0,0.0,0.0,0.0,0.0
1626894339953877439,82912,1626894339953877439,imu,0.234921098067,0.66826477078,-0.23101490158,0.666983050058,0.0,0.0,0.0,0.0,0.0,0.0,0.0,0.0,0.0,0.164444444444,-0.0644444444444,-0.0477777777778,0.0,0.0,0.0,0.0,0.0,0.0,0.0,0.0,0.0,10.09,0.0,-0.28,0.0,0.0,0.0,0.0,0.0,0.0,0.0,0.0,0.0
1626894339964539939,82913,1626894339964539939,imu,0.235227081528,0.667900870048,-0.231748113275,0.666985352087,0.0,0.0,0.0,0.0,0.0,0.0,0.0,0.0,0.0,0.167777777778,-0.0644444444444,-0.0433333333333,0.0,0.0,0.0,0.0,0.0,0.0,0.0,0.0,0.0,10.08,0.01,-0.24,0.0,0.0,0.0,0.0,0.0,0.0,0.0,0.0,0.0
1626894339974565720,82914,1626894339974565720,imu,0.235596781779,0.667544560187,-0.232545009995,0.66693420583,0.0,0.0,0.0,0.0,0.0,0.0,0.0,0.0,0.0,0.173333333333,-0.0633333333333,-0.0422222222222,0.0,0.0,0.0,0.0,0.0,0.0,0.0,0.0,0.0,10.07,-0.02,-0.23,0.0,0.0,0.0,0.0,0.0,0.0,0.0,0.0,0.0
1626894339981317907,82915,1626894339981317907,imu,0.235902393531,0.667240612182,-0.233277864962,0.666874398894,0.0,0.0,0.0,0.0,0.0,0.0,0.0,0.0,0.0,0.172222222222,-0.0611111111111,-0.0366666666667,0.0,0.0,0.0,0.0,0.0,0.0,0.0,0.0,0.0,10.07,-0.02,-0.23,0.0,0.0,0.0,0.0,0.0,0.0,0.0,0.0,0.0
1626894339991136293,82916,1626894339991136293,imu,0.236332709769,0.666883054477,-0.234013328836,0.666822018137,0.0,0.0,0.0,0.0,0.0,0.0,0.0,0.0,0.0,0.178888888889,-0.0566666666667,-0.03,0.0,0.0,0.0,0.0,0.0,0.0,0.0,0.0,0.0,10.07,0.0,-0.16,0.0,0.0,0.0,0.0,0.0,0.0,0.0,0.0,0.0
1626894340004407543,82917,1626894340004407543,imu,0.236756590444,0.666507338914,-0.234681384444,0.666812516267,0.0,0.0,0.0,0.0,0.0,0.0,0.0,0.0,0.0,0.173333333333,-0.0544444444444,-0.0222222222222,0.0,0.0,0.0,0.0,0.0,0.0,0.0,0.0,0.0,10.12,0.05,-0.26,0.0,0.0,0.0,0.0,0.0,0.0,0.0,0.0,0.0
1626894340014713585,82918,1626894340014713585,imu,0.237180285912,0.666192182379,-0.235349249222,0.666741493386,0.0,0.0,0.0,0.0,0.0,0.0,0.0,0.0,0.0,0.171111111111,-0.05,-0.0155555555556,0.0,0.0,0.0,0.0,0.0,0.0,0.0,0.0,0.0,10.07,0.1,-0.24,0.0,0.0,0.0,0.0,0.0,0.0,0.0,0.0,0.0
1626894340025207022,82919,1626894340025207022,imu,0.238033992928,0.66557966484,-0.236569168356,0.666617248911,0.0,0.0,0.0,0.0,0.0,0.0,0.0,0.0,0.0,0.163333333333,-0.0455555555556,-0.0144444444444,0.0,0.0,0.0,0.0,0.0,0.0,0.0,0.0,0.0,10.07,0.09,-0.18,0.0,0.0,0.0,0.0,0.0,0.0,0.0,0.0,0.0
1626894340031097595,82920,1626894340031097595,imu,0.238033992928,0.66557966484,-0.236569168356,0.666617248911,0.0,0.0,0.0,0.0,0.0,0.0,0.0,0.0,0.0,0.164444444444,-0.0444444444444,-0.0122222222222,0.0,0.0,0.0,0.0,0.0,0.0,0.0,0.0,0.0,10.07,0.09,-0.18,0.0,0.0,0.0,0.0,0.0,0.0,0.0,0.0,0.0
1626894340041141814,82921,1626894340041141814,imu,0.238521625816,0.665272702507,-0.23711783938,0.666554420558,0.0,0.0,0.0,0.0,0.0,0.0,0.0,0.0,0.0,0.168888888889,-0.0377777777778,-0.00666666666667,0.0,0.0,0.0,0.0,0.0,0.0,0.0,0.0,0.0,10.08,0.07,-0.21,0.0,0.0,0.0,0.0,0.0,0.0,0.0,0.0,0.0
1626894340054168897,82922,1626894340054168897,imu,0.239005636463,0.664955671415,-0.237723941272,0.666481499022,0.0,0.0,0.0,0.0,0.0,0.0,0.0,0.0,0.0,0.168888888889,-0.0366666666667,-0.00555555555556,0.0,0.0,0.0,0.0,0.0,0.0,0.0,0.0,0.0,10.06,0.08,-0.22,0.0,0.0,0.0,0.0,0.0,0.0,0.0,0.0,0.0
1626894340064430824,82923,1626894340064430824,imu,0.239560217744,0.664665164645,-0.238278494286,0.666374129256,0.0,0.0,0.0,0.0,0.0,0.0,0.0,0.0,0.0,0.167777777778,-0.0322222222222,0.00111111111111,0.0,0.0,0.0,0.0,0.0,0.0,0.0,0.0,0.0,10.06,0.05,-0.22,0.0,0.0,0.0,0.0,0.0,0.0,0.0,0.0,0.0
1626894340074685407,82924,1626894340074685407,imu,0.239989853965,0.664366622687,-0.238830187834,0.666319744591,0.0,0.0,0.0,0.0,0.0,0.0,0.0,0.0,0.0,0.163333333333,-0.03,0.00444444444444,0.0,0.0,0.0,0.0,0.0,0.0,0.0,0.0,0.0,10.08,0.06,-0.21,0.0,0.0,0.0,0.0,0.0,0.0,0.0,0.0,0.0
1626894340081367178,82925,1626894340081367178,imu,0.240476896836,0.664119064588,-0.239378271419,0.666194245931,0.0,0.0,0.0,0.0,0.0,0.0,0.0,0.0,0.0,0.164444444444,-0.0255555555556,0.00444444444444,0.0,0.0,0.0,0.0,0.0,0.0,0.0,0.0,0.0,10.08,0.06,-0.21,0.0,0.0,0.0,0.0,0.0,0.0,0.0,0.0,0.0
1626894340091172022,82926,1626894340091172022,imu,0.241031041634,0.66382719899,-0.239932394192,0.666085529844,0.0,0.0,0.0,0.0,0.0,0.0,0.0,0.0,0.0,0.166666666667,-0.0255555555556,0.01,0.0,0.0,0.0,0.0,0.0,0.0,0.0,0.0,0.0,10.06,0.0,-0.25,0.0,0.0,0.0,0.0,0.0,0.0,0.0,0.0,0.0
1626894340104634418,82927,1626894340104634418,imu,0.241568978701,0.663551777777,-0.24040934995,0.665993101462,0.0,0.0,0.0,0.0,0.0,0.0,0.0,0.0,0.0,0.163333333333,-0.0233333333333,0.0155555555556,0.0,0.0,0.0,0.0,0.0,0.0,0.0,0.0,0.0,10.04,0.04,-0.22,0.0,0.0,0.0,0.0,0.0,0.0,0.0,0.0,0.0
1626894340114323480,82928,1626894340114323480,imu,0.242068902455,0.663278558493,-0.24090921785,0.665903107864,0.0,0.0,0.0,0.0,0.0,0.0,0.0,0.0,0.0,0.156666666667,-0.02,0.0166666666667,0.0,0.0,0.0,0.0,0.0,0.0,0.0,0.0,0.0,10.06,0.05,-0.3,0.0,0.0,0.0,0.0,0.0,0.0,0.0,0.0,0.0
1626894340124734262,82929,1626894340124734262,imu,0.242619935035,0.66303908284,-0.241338169341,0.665785723614,0.0,0.0,0.0,0.0,0.0,0.0,0.0,0.0,0.0,0.16,-0.0166666666667,0.0188888888889,0.0,0.0,0.0,0.0,0.0,0.0,0.0,0.0,0.0,10.07,0.15,-0.28,0.0,0.0,0.0,0.0,0.0,0.0,0.0,0.0,0.0
1626894340132262803,82930,1626894340132262803,imu,0.243167250725,0.662789451714,-0.241824459682,0.66565814167,0.0,0.0,0.0,0.0,0.0,0.0,0.0,0.0,0.0,0.165555555556,-0.0155555555556,0.02,0.0,0.0,0.0,0.0,0.0,0.0,0.0,0.0,0.0,10.07,0.15,-0.28,0.0,0.0,0.0,0.0,0.0,0.0,0.0,0.0,0.0
1626894340141129053,82931,1626894340141129053,imu,0.243781673982,0.662495315322,-0.242316786607,0.66554716402,0.0,0.0,0.0,0.0,0.0,0.0,0.0,0.0,0.0,0.168888888889,-0.0188888888889,0.0144444444444,0.0,0.0,0.0,0.0,0.0,0.0,0.0,0.0,0.0,10.05,0.07,-0.3,0.0,0.0,0.0,0.0,0.0,0.0,0.0,0.0,0.0
1626894340154202491,82932,1626894340154202491,imu,0.244325051146,0.662235024965,-0.242860199478,0.665408870246,0.0,0.0,0.0,0.0,0.0,0.0,0.0,0.0,0.0,0.175555555556,-0.0188888888889,0.0155555555556,0.0,0.0,0.0,0.0,0.0,0.0,0.0,0.0,0.0,10.06,0.06,-0.24,0.0,0.0,0.0,0.0,0.0,0.0,0.0,0.0,0.0
1626894340164525459,82933,1626894340164525459,imu,0.244935504554,0.661930113852,-0.243409616786,0.665287066942,0.0,0.0,0.0,0.0,0.0,0.0,0.0,0.0,0.0,0.178888888889,-0.0188888888889,0.0177777777778,0.0,0.0,0.0,0.0,0.0,0.0,0.0,0.0,0.0,10.04,-0.02,-0.22,0.0,0.0,0.0,0.0,0.0,0.0,0.0,0.0,0.0
1626894340174668480,82934,1626894340174668480,imu,0.245535850728,0.661659000185,-0.243948992136,0.665137882485,0.0,0.0,0.0,0.0,0.0,0.0,0.0,0.0,0.0,0.182222222222,-0.0144444444444,0.0155555555556,0.0,0.0,0.0,0.0,0.0,0.0,0.0,0.0,0.0,10.05,0.08,-0.16,0.0,0.0,0.0,0.0,0.0,0.0,0.0,0.0,0.0
1626894340181155407,82935,1626894340181155407,imu,0.246213225981,0.661369984317,-0.244504259614,0.664971020592,0.0,0.0,0.0,0.0,0.0,0.0,0.0,0.0,0.0,0.187777777778,-0.0122222222222,0.02,0.0,0.0,0.0,0.0,0.0,0.0,0.0,0.0,0.0,10.05,0.08,-0.16,0.0,0.0,0.0,0.0,0.0,0.0,0.0,0.0,0.0
1626894340191131605,82936,1626894340191131605,imu,0.246823140802,0.661124693661,-0.245053143007,0.664786758065,0.0,0.0,0.0,0.0,0.0,0.0,0.0,0.0,0.0,0.19,-0.00888888888889,0.0144444444444,0.0,0.0,0.0,0.0,0.0,0.0,0.0,0.0,0.0,10.05,0.1,-0.26,0.0,0.0,0.0,0.0,0.0,0.0,0.0,0.0,0.0
1626894340204724105,82937,1626894340204724105,imu,0.247500198784,0.660895721931,-0.245608088756,0.664557870372,0.0,0.0,0.0,0.0,0.0,0.0,0.0,0.0,0.0,0.193333333333,-0.00777777777778,0.0177777777778,0.0,0.0,0.0,0.0,0.0,0.0,0.0,0.0,0.0,10.02,0.06,-0.2,0.0,0.0,0.0,0.0,0.0,0.0,0.0,0.0,0.0
1626894340214504001,82938,1626894340214504001,imu,0.248167008505,0.660639375321,-0.246152864068,0.664362490796,0.0,0.0,0.0,0.0,0.0,0.0,0.0,0.0,0.0,0.201111111111,-0.00666666666667,0.0166666666667,0.0,0.0,0.0,0.0,0.0,0.0,0.0,0.0,0.0,10.05,0.05,-0.23,0.0,0.0,0.0,0.0,0.0,0.0,0.0,0.0,0.0
1626894340224858949,82939,1626894340224858949,imu,0.248897177142,0.660389273338,-0.246760982635,0.664112355193,0.0,0.0,0.0,0.0,0.0,0.0,0.0,0.0,0.0,0.205555555556,-0.01,0.0155555555556,0.0,0.0,0.0,0.0,0.0,0.0,0.0,0.0,0.0,10.05,0.09,-0.23,0.0,0.0,0.0,0.0,0.0,0.0,0.0,0.0,0.0
